timestamp,PPG-IR,PPG-G,PPG-R,HR,Accel-Z,Accel-X,Accel-Y
2026-04-18T09:58:06.655Z,38229.0,2064.0,2100.0,0.0,-2.3474,0.5157,9.5845
2026-04-18T09:58:06.655Z,38249.0,2064.0,2083.0,0.0,-2.3474,0.5157,9.5845
2026-04-18T09:58:06.656Z,38269.0,2064.0,2083.0,0.0,-2.3474,0.5157,9.5845
2026-04-18T09:58:06.719Z,38289.0,2064.0,2048.0,0.0,-2.3474,0.5157,9.5845
2026-04-18T09:58:06.719Z,38309.0,2064.0,2048.0,0.0,-2.3474,0.5157,9.5845
2026-04-18T09:58:06.720Z,38329.0,2064.0,2000.0,0.0,-2.3474,0.5157,9.5845
2026-04-18T09:58:06.772Z,38349.0,2064.0,2000.0,0.0,-2.3474,0.5157,9.5845
2026-04-18T09:58:06.834Z,38369.0,2064.0,1957.0,0.0,-2.3474,0.5157,9.5845
2026-04-18T09:58:06.834Z,38389.0,2064.0,1957.0,0.0,-2.3474,0.5157,9.5845
2026-04-18T09:58:06.835Z,38409.0,2064.0,1935.0,0.0,-2.3474,0.5157,9.5845
2026-04-18T09:58:06.836Z,38429.0,2064.0,1935.0,0.0,-2.3474,0.5157,9.5845
2026-04-18T09:58:06.836Z,38449.0,2064.0,1936.0,0.0,-2.3474,0.5157,9.5845
2026-04-18T09:58:06.900Z,38469.0,2064.0,1936.0,0.0,-2.3474,0.5157,9.5845
2026-04-18T09:58:06.901Z,38489.0,2064.0,1947.0,0.0,-2.3474,0.5157,9.5845
2026-04-18T09:58:06.901Z,38509.0,2061.0,1947.0,0.0,-2.3486,0.518,9.5821
2026-04-18T09:58:06.962Z,38529.0,2061.0,1958.0,0.0,-2.3462,0.5168,9.5916
2026-04-18T09:58:06.962Z,38550.0,2061.0,1958.0,0.0,-2.3462,0.5168,9.5916
2026-04-18T09:58:06.964Z,38569.0,2061.0,1966.0,0.0,-2.3545,0.53,9.5845
2026-04-18T09:58:07.026Z,38589.0,2064.0,1966.0,0.0,-2.3581,0.5288,9.5856
2026-04-18T09:58:07.026Z,38609.0,2064.0,1968.0,0.0,-2.3581,0.5288,9.5856
2026-04-18T09:58:07.026Z,38629.0,2064.0,1968.0,0.0,-2.3521,0.5168,9.5785
2026-04-18T09:58:07.088Z,38649.0,2064.0,1970.0,0.0,-2.3521,0.5168,9.5785
2026-04-18T09:58:07.088Z,38669.0,2064.0,1970.0,0.0,-2.3438,0.5157,9.5868
2026-04-18T09:58:07.089Z,38689.0,2064.0,1969.0,0.0,-2.3533,0.5264,9.5856
2026-04-18T09:58:07.213Z,38709.0,2064.0,1969.0,0.0,-2.3533,0.5264,9.5856
2026-04-18T09:58:07.213Z,38729.0,2064.0,1965.0,0.0,-2.3498,0.524,9.5845
2026-04-18T09:58:07.214Z,38749.0,2064.0,1965.0,0.0,-2.3498,0.524,9.5845
2026-04-18T09:58:07.214Z,38769.0,2064.0,1965.0,0.0,-2.3486,0.524,9.5785
2026-04-18T09:58:07.215Z,38789.0,2064.0,1965.0,0.0,-2.3486,0.524,9.5785
2026-04-18T09:58:07.264Z,38809.0,2064.0,1957.0,0.0,-2.3593,0.524,9.5868
2026-04-18T09:58:07.266Z,38829.0,2064.0,1957.0,0.0,-2.3593,0.524,9.5868
2026-04-18T09:58:07.266Z,38849.0,2064.0,1946.0,0.0,-2.3486,0.5204,9.5892
2026-04-18T09:58:07.268Z,38869.0,2064.0,1946.0,0.0,-2.3486,0.5204,9.5892
2026-04-18T09:58:07.331Z,38889.0,2064.0,1930.0,0.0,-2.3509,0.518,9.5856
2026-04-18T09:58:07.331Z,38909.0,2064.0,1930.0,0.0,-2.3509,0.518,9.5856
2026-04-18T09:58:07.332Z,38930.0,2064.0,1923.0,0.0,-2.3617,0.5288,9.5856
2026-04-18T09:58:07.379Z,38949.0,2064.0,1923.0,0.0,-2.3509,0.5276,9.5856
2026-04-18T09:58:07.403Z,38969.0,2064.0,1922.0,0.0,-2.3509,0.5276,9.5856
2026-04-18T09:58:07.403Z,38989.0,2064.0,1922.0,0.0,-2.345,0.5204,9.5845
2026-04-18T09:58:07.446Z,39009.0,2064.0,1922.0,0.0,-2.345,0.5204,9.5845
2026-04-18T09:58:07.446Z,39030.0,2064.0,1922.0,0.0,-2.3569,0.5192,9.5845
2026-04-18T09:58:07.447Z,39049.0,2064.0,1934.0,0.0,-2.3498,0.5288,9.5856
2026-04-18T09:58:07.509Z,39069.0,2064.0,1934.0,0.0,-2.3498,0.5288,9.5856
2026-04-18T09:58:07.509Z,39089.0,2064.0,1939.0,0.0,-2.345,0.5264,9.5833
2026-04-18T09:58:07.510Z,39110.0,2064.0,1939.0,0.0,-2.345,0.5264,9.5833
2026-04-18T09:58:07.552Z,39130.0,2064.0,1940.0,0.0,-2.3521,0.5216,9.588
2026-04-18T09:58:07.573Z,39150.0,2064.0,1940.0,0.0,-2.3521,0.5216,9.588
2026-04-18T09:58:07.573Z,39170.0,2064.0,1946.0,0.0,-2.3581,0.5228,9.5785
2026-04-18T09:58:07.615Z,39190.0,2064.0,1946.0,0.0,-2.3521,0.5288,9.5809
2026-04-18T09:58:07.615Z,39211.0,2064.0,1953.0,0.0,-2.3521,0.5288,9.5809
2026-04-18T09:58:07.616Z,39230.0,2064.0,1953.0,0.0,-2.3486,0.524,9.5821
2026-04-18T09:58:07.678Z,39249.0,2064.0,1969.0,0.0,-2.3486,0.524,9.5821
2026-04-18T09:58:07.678Z,39269.0,2064.0,1969.0,0.0,-2.3486,0.524,9.5821
2026-04-18T09:58:07.679Z,39289.0,2064.0,1990.0,0.0,-2.3486,0.524,9.5821
2026-04-18T09:58:07.742Z,39309.0,2064.0,1990.0,0.0,-2.3486,0.524,9.5821
2026-04-18T09:58:07.744Z,39329.0,2064.0,2012.0,0.0,-2.3486,0.524,9.5821
2026-04-18T09:58:07.744Z,39349.0,2064.0,2012.0,0.0,-2.3486,0.524,9.5821
2026-04-18T09:58:07.807Z,39369.0,2064.0,2014.0,0.0,-2.3486,0.524,9.5821
2026-04-18T09:58:07.807Z,39389.0,2064.0,2014.0,0.0,-2.3486,0.524,9.5821
2026-04-18T09:58:07.808Z,39409.0,2064.0,2005.0,0.0,-2.3486,0.524,9.5821
2026-04-18T09:58:07.912Z,39430.0,2064.0,2005.0,0.0,-2.3486,0.524,9.5821
2026-04-18T09:58:07.935Z,39449.0,2064.0,1992.0,0.0,-2.3486,0.524,9.5821
2026-04-18T09:58:07.935Z,39469.0,2064.0,1992.0,0.0,-2.3486,0.524,9.5821
2026-04-18T09:58:07.936Z,39489.0,2064.0,1971.0,0.0,-2.3486,0.524,9.5821
2026-04-18T09:58:07.936Z,39509.0,2064.0,1971.0,0.0,-2.3617,0.5204,9.5809
2026-04-18T09:58:07.938Z,39529.0,2064.0,1951.0,0.0,-2.3509,0.5228,9.5797
2026-04-18T09:58:07.979Z,39549.0,2064.0,1951.0,0.0,-2.3509,0.5228,9.5797
2026-04-18T09:58:07.979Z,39569.0,2064.0,1954.0,0.0,-2.3462,0.5216,9.5868
2026-04-18T09:58:07.980Z,39589.0,2064.0,1954.0,0.0,-2.3521,0.5252,9.5856
2026-04-18T09:58:08.043Z,39609.0,2064.0,1969.0,0.0,-2.3521,0.5252,9.5856
2026-04-18T09:58:08.043Z,39629.0,2064.0,1969.0,0.0,-2.3545,0.524,9.5856
2026-04-18T09:58:08.044Z,39649.0,2064.0,1980.0,0.0,-2.3545,0.524,9.5856
2026-04-18T09:58:08.107Z,39669.0,2064.0,1980.0,0.0,-2.3366,0.5204,9.5845
2026-04-18T09:58:08.107Z,39689.0,2064.0,1982.0,0.0,-2.3533,0.5288,9.5833
2026-04-18T09:58:08.107Z,39709.0,2064.0,1982.0,0.0,-2.3533,0.5288,9.5833
2026-04-18T09:58:08.169Z,39729.0,2064.0,1972.0,0.0,-2.3533,0.5288,9.5833
2026-04-18T09:58:08.231Z,39749.0,2064.0,1972.0,0.0,-2.3593,0.5348,9.5809
2026-04-18T09:58:08.231Z,39769.0,2064.0,1963.0,0.0,-2.3593,0.5348,9.5809
2026-04-18T09:58:08.231Z,39789.0,2064.0,1963.0,0.0,-2.3545,0.5228,9.588
2026-04-18T09:58:08.231Z,39809.0,2064.0,1966.0,0.0,-2.333,0.5145,9.5892
2026-04-18T09:58:08.232Z,39829.0,2064.0,1966.0,0.0,-2.333,0.5145,9.5892
2026-04-18T09:58:08.294Z,39849.0,2064.0,1968.0,0.0,-2.3498,0.524,9.588
2026-04-18T09:58:08.295Z,39869.0,2064.0,1968.0,0.0,-2.3498,0.524,9.588
2026-04-18T09:58:08.295Z,39889.0,2064.0,1976.0,0.0,-2.3581,0.5336,9.5809
2026-04-18T09:58:08.336Z,39909.0,2064.0,1976.0,0.0,-2.3581,0.5336,9.5809
2026-04-18T09:58:08.336Z,39930.0,2064.0,1978.0,0.0,-2.3593,0.5312,9.5868
2026-04-18T09:58:08.336Z,39952.0,2064.0,1978.0,0.0,-2.3402,0.518,9.5892
2026-04-18T09:58:08.398Z,39971.0,2064.0,1987.0,0.0,-2.3402,0.518,9.5892
2026-04-18T09:58:08.398Z,39991.0,2064.0,1987.0,0.0,-2.3569,0.5216,9.5845
2026-04-18T09:58:08.398Z,40011.0,2064.0,2003.0,0.0,-2.3569,0.5216,9.5845
2026-04-18T09:58:08.461Z,40032.0,2064.0,2003.0,0.0,-2.3593,0.5324,9.5833
2026-04-18T09:58:08.461Z,40052.0,2064.0,2020.0,0.0,-2.3438,0.5252,9.588
2026-04-18T09:58:08.461Z,40071.0,2064.0,2020.0,0.0,-2.3438,0.5252,9.588
2026-04-18T09:58:08.523Z,40091.0,2064.0,2042.0,0.0,-2.3354,0.5204,9.5904
2026-04-18T09:58:08.523Z,40111.0,2064.0,2042.0,0.0,-2.3354,0.5204,9.5904
2026-04-18T09:58:08.523Z,40132.0,2064.0,2048.0,0.0,-2.3486,0.5216,9.5892
2026-04-18T09:58:08.585Z,40152.0,2064.0,2048.0,0.0,-2.3486,0.5216,9.5892
2026-04-18T09:58:08.585Z,40171.0,2064.0,2039.0,0.0,-2.3617,0.5348,9.5833
2026-04-18T09:58:08.586Z,40191.0,2064.0,2039.0,0.0,-2.3593,0.5252,9.5892
2026-04-18T09:58:08.648Z,40211.0,2064.0,2031.0,0.0,-2.3593,0.5252,9.5892
2026-04-18T09:58:08.648Z,40231.0,2064.0,2031.0,0.0,-2.3486,0.5168,9.5856
2026-04-18T09:58:08.649Z,40249.0,2064.0,2024.0,0.0,-2.3486,0.5168,9.5856
2026-04-18T09:58:08.711Z,40269.0,2064.0,2024.0,0.0,-2.3486,0.5168,9.5856
2026-04-18T09:58:08.711Z,40290.0,2064.0,2023.0,0.0,-2.3486,0.5168,9.5856
2026-04-18T09:58:08.711Z,40309.0,2064.0,2023.0,0.0,-2.3486,0.5168,9.5856
2026-04-18T09:58:08.753Z,40329.0,2064.0,2023.0,0.0,-2.3486,0.5168,9.5856
2026-04-18T09:58:08.814Z,40349.0,2064.0,2023.0,0.0,-2.3486,0.5168,9.5856
2026-04-18T09:58:08.814Z,40369.0,2064.0,2014.0,0.0,-2.3486,0.5168,9.5856
2026-04-18T09:58:08.815Z,40389.0,2064.0,2014.0,0.0,-2.3486,0.5168,9.5856
2026-04-18T09:58:08.815Z,40409.0,2064.0,2011.0,0.0,-2.3486,0.5168,9.5856
2026-04-18T09:58:08.815Z,40429.0,2064.0,2011.0,0.0,-2.3486,0.5168,9.5856
2026-04-18T09:58:08.937Z,40449.0,2064.0,2023.0,0.0,-2.3486,0.5168,9.5856
2026-04-18T09:58:08.939Z,40469.0,2064.0,2023.0,0.0,-2.3486,0.5168,9.5856
2026-04-18T09:58:08.939Z,40489.0,2064.0,2029.0,0.0,-2.3486,0.5168,9.5856
2026-04-18T09:58:08.939Z,40509.0,2064.0,2029.0,0.0,-2.3486,0.5121,9.5821
2026-04-18T09:58:08.939Z,40529.0,2064.0,2016.0,0.0,-2.3617,0.5312,9.5821
2026-04-18T09:58:09.002Z,40549.0,2064.0,2016.0,0.0,-2.3617,0.5312,9.5821
2026-04-18T09:58:09.002Z,40569.0,2064.0,2011.0,0.0,-2.3593,0.5348,9.5821
2026-04-18T09:58:09.002Z,40589.0,2064.0,2011.0,0.0,-2.3366,0.5192,9.5892
2026-04-18T09:58:09.004Z,40609.0,2064.0,2021.0,0.0,-2.3366,0.5192,9.5892
2026-04-18T09:58:09.065Z,40629.0,2064.0,2021.0,0.0,-2.3509,0.5157,9.5821
2026-04-18T09:58:09.069Z,40649.0,2064.0,2032.0,0.0,-2.3509,0.5157,9.5821
2026-04-18T09:58:09.071Z,40669.0,2064.0,2032.0,0.0,-2.3545,0.5324,9.5845
2026-04-18T09:58:09.113Z,40689.0,2064.0,2042.0,0.0,-2.3545,0.5324,9.5845
2026-04-18T09:58:09.113Z,40710.0,2064.0,2042.0,0.0,-2.3474,0.5348,9.5845
2026-04-18T09:58:09.113Z,40729.0,2064.0,2054.0,0.0,-2.3474,0.5348,9.5845
2026-04-18T09:58:09.179Z,40749.0,2064.0,2054.0,0.0,-2.3474,0.5157,9.5868
2026-04-18T09:58:09.181Z,40769.0,2064.0,2086.0,0.0,-2.3474,0.5157,9.5868
2026-04-18T09:58:09.182Z,40789.0,2064.0,2086.0,0.0,-2.3557,0.5228,9.5868
2026-04-18T09:58:09.244Z,40810.0,2064.0,2125.0,0.0,-2.3521,0.5372,9.5856
2026-04-18T09:58:09.246Z,40830.0,2064.0,2125.0,0.0,-2.3521,0.5372,9.5856
2026-04-18T09:58:09.246Z,40851.0,2064.0,2148.0,0.0,-2.3438,0.5252,9.5928
2026-04-18T09:58:09.309Z,40871.0,2064.0,2148.0,0.0,-2.3438,0.5252,9.5928
2026-04-18T09:58:09.309Z,40892.0,2064.0,2143.0,0.0,-2.3402,0.5097,9.5821
2026-04-18T09:58:09.310Z,40912.0,2064.0,2143.0,0.0,-2.3402,0.5097,9.5821
2026-04-18T09:58:09.352Z,40932.0,2064.0,2131.0,0.0,-2.3498,0.5204,9.5856
2026-04-18T09:58:09.373Z,40953.0,2064.0,2131.0,0.0,-2.3581,0.5408,9.5868
2026-04-18T09:58:09.373Z,40973.0,2064.0,2124.0,0.0,-2.3581,0.5408,9.5868
2026-04-18T09:58:09.418Z,40992.0,2064.0,2124.0,0.0,-2.3498,0.53,9.5785
2026-04-18T09:58:09.418Z,41012.0,2064.0,2107.0,0.0,-2.3498,0.53,9.5785
2026-04-18T09:58:09.418Z,41032.0,2064.0,2107.0,0.0,-2.3462,0.5168,9.5845
2026-04-18T09:58:09.481Z,41049.0,2064.0,2102.0,0.0,-2.3545,0.5264,9.5845
2026-04-18T09:58:09.481Z,41069.0,2064.0,2102.0,0.0,-2.3545,0.5264,9.5845
2026-04-18T09:58:09.484Z,41089.0,2064.0,2112.0,0.0,-2.3486,0.5264,9.5821
2026-04-18T09:58:09.546Z,41109.0,2064.0,2112.0,0.0,-2.3486,0.5264,9.5821
2026-04-18T09:58:09.546Z,41129.0,2064.0,2111.0,0.0,-2.339,0.5216,9.5892
2026-04-18T09:58:09.547Z,41149.0,2064.0,2111.0,0.0,-2.3533,0.5216,9.5821
2026-04-18T09:58:09.671Z,41169.0,2064.0,2093.0,0.0,-2.3533,0.5216,9.5821
2026-04-18T09:58:09.714Z,41189.0,2064.0,2093.0,0.0,-2.3653,0.5336,9.5809
2026-04-18T09:58:09.714Z,41209.0,2064.0,2078.0,0.0,-2.3653,0.5336,9.5809
2026-04-18T09:58:09.714Z,41229.0,2064.0,2078.0,0.0,-2.3498,0.5324,9.5809
2026-04-18T09:58:09.714Z,41249.0,2064.0,2070.0,0.0,-2.3426,0.5157,9.5821
2026-04-18T09:58:09.714Z,41269.0,2064.0,2070.0,0.0,-2.3426,0.5157,9.5821
2026-04-18T09:58:09.777Z,41289.0,2064.0,2070.0,0.0,-2.3426,0.5157,9.5821
2026-04-18T09:58:09.779Z,41309.0,2064.0,2070.0,0.0,-2.3426,0.5157,9.5821
2026-04-18T09:58:09.786Z,41329.0,2064.0,2075.0,0.0,-2.3426,0.5157,9.5821
2026-04-18T09:58:09.786Z,41349.0,2064.0,2075.0,0.0,-2.3426,0.5157,9.5821
2026-04-18T09:58:09.786Z,41369.0,2064.0,2071.0,0.0,-2.3426,0.5157,9.5821
2026-04-18T09:58:09.848Z,41389.0,2064.0,2071.0,0.0,-2.3426,0.5157,9.5821
2026-04-18T09:58:09.851Z,41409.0,2064.0,2056.0,0.0,-2.3426,0.5157,9.5821
2026-04-18T09:58:09.851Z,41429.0,2064.0,2056.0,0.0,-2.3426,0.5157,9.5821
2026-04-18T09:58:09.851Z,41449.0,2064.0,2049.0,0.0,-2.3426,0.5157,9.5821
2026-04-18T09:58:09.915Z,41469.0,2064.0,2049.0,0.0,-2.3426,0.5157,9.5821
2026-04-18T09:58:09.956Z,41489.0,2064.0,2051.0,0.0,-2.3426,0.5157,9.5821
2026-04-18T09:58:10.002Z,41509.0,2064.0,2051.0,0.0,-2.3438,0.5192,9.5797
2026-04-18T09:58:10.002Z,41529.0,2064.0,2056.0,0.0,-2.3593,0.518,9.5809
2026-04-18T09:58:10.003Z,41549.0,2064.0,2056.0,0.0,-2.3593,0.518,9.5809
2026-04-18T09:58:10.003Z,41569.0,2064.0,2071.0,0.0,-2.3462,0.5276,9.5809
2026-04-18T09:58:10.027Z,41589.0,2064.0,2071.0,0.0,-2.3474,0.524,9.5856
2026-04-18T09:58:10.028Z,41609.0,2064.0,2079.0,0.0,-2.3474,0.524,9.5856
2026-04-18T09:58:10.028Z,41629.0,2064.0,2079.0,0.0,-2.3462,0.5204,9.5868
2026-04-18T09:58:10.093Z,41649.0,2064.0,2083.0,0.0,-2.3462,0.5204,9.5868
2026-04-18T09:58:10.093Z,41670.0,2064.0,2083.0,0.0,-2.3462,0.5204,9.5868
2026-04-18T09:58:10.094Z,41689.0,2064.0,2083.0,0.0,-2.3545,0.5204,9.5833
2026-04-18T09:58:10.135Z,41709.0,2064.0,2083.0,0.0,-2.3569,0.536,9.5785
2026-04-18T09:58:10.135Z,41729.0,2064.0,2080.0,0.0,-2.3569,0.536,9.5785
2026-04-18T09:58:10.136Z,41749.0,2064.0,2080.0,0.0,-2.3617,0.5372,9.5809
2026-04-18T09:58:10.198Z,41770.0,2064.0,2092.0,0.0,-2.3617,0.5372,9.5809
2026-04-18T09:58:10.260Z,41790.0,2064.0,2092.0,0.0,-2.3378,0.5097,9.5845
2026-04-18T09:58:10.260Z,41810.0,2064.0,2106.0,0.0,-2.339,0.5121,9.5797
2026-04-18T09:58:10.260Z,41832.0,2064.0,2106.0,0.0,-2.339,0.5121,9.5797
2026-04-18T09:58:10.260Z,41851.0,2064.0,2124.0,0.0,-2.3509,0.5264,9.5833
2026-04-18T09:58:10.260Z,41871.0,2064.0,2124.0,0.0,-2.3509,0.5264,9.5833
2026-04-18T09:58:10.323Z,41891.0,2064.0,2136.0,0.0,-2.3486,0.524,9.5833
2026-04-18T09:58:10.324Z,41911.0,2064.0,2136.0,0.0,-2.3486,0.524,9.5833
2026-04-18T09:58:10.324Z,41932.0,2064.0,2129.0,0.0,-2.339,0.5133,9.5845
2026-04-18T09:58:10.386Z,41949.0,2064.0,2129.0,0.0,-2.3593,0.5288,9.5833
2026-04-18T09:58:10.386Z,41969.0,2064.0,2122.0,0.0,-2.3593,0.5288,9.5833
2026-04-18T09:58:10.386Z,41989.0,2064.0,2122.0,0.0,-2.3557,0.5288,9.5809
2026-04-18T09:58:10.452Z,42009.0,2064.0,2110.0,0.0,-2.3557,0.5288,9.5809
2026-04-18T09:58:10.454Z,42029.0,2064.0,2110.0,0.0,-2.3354,0.5204,9.588
2026-04-18T09:58:10.456Z,42049.0,2064.0,2090.0,0.0,-2.3462,0.5228,9.5856
2026-04-18T09:58:10.497Z,42069.0,2064.0,2090.0,0.0,-2.3462,0.5228,9.5856
2026-04-18T09:58:10.498Z,42089.0,2064.0,2052.0,0.0,-2.3641,0.5264,9.5821
2026-04-18T09:58:10.499Z,42109.0,2064.0,2052.0,0.0,-2.3641,0.5264,9.5821
2026-04-18T09:58:10.561Z,42129.0,2064.0,2019.0,0.0,-2.3569,0.5324,9.5833
2026-04-18T09:58:10.561Z,42149.0,2064.0,2019.0,0.0,-2.345,0.5228,9.5892
2026-04-18T09:58:10.563Z,42169.0,2064.0,2005.0,0.0,-2.345,0.5228,9.5892
2026-04-18T09:58:10.687Z,42189.0,2064.0,2005.0,0.0,-2.3593,0.5192,9.5785
2026-04-18T09:58:10.688Z,42209.0,2064.0,2007.0,0.0,-2.3593,0.5192,9.5785
2026-04-18T09:58:10.688Z,42229.0,2064.0,2007.0,0.0,-2.3486,0.5264,9.588
2026-04-18T09:58:10.689Z,42249.0,2064.0,2019.0,0.0,-2.3486,0.5336,9.5856
2026-04-18T09:58:10.689Z,42269.0,2064.0,2019.0,0.0,-2.3486,0.5336,9.5856
2026-04-18T09:58:10.751Z,42290.0,2064.0,2046.0,0.0,-2.3486,0.5336,9.5856
2026-04-18T09:58:10.751Z,42309.0,2064.0,2046.0,0.0,-2.3486,0.5336,9.5856
2026-04-18T09:58:10.752Z,42329.0,2064.0,2094.0,0.0,-2.3486,0.5336,9.5856
2026-04-18T09:58:10.752Z,42349.0,2064.0,2094.0,0.0,-2.3486,0.5336,9.5856
2026-04-18T09:58:10.794Z,42369.0,2064.0,2134.0,0.0,-2.3486,0.5336,9.5856
2026-04-18T09:58:10.795Z,42389.0,2064.0,2134.0,0.0,-2.3486,0.5336,9.5856
2026-04-18T09:58:10.796Z,42409.0,2064.0,2163.0,0.0,-2.3486,0.5336,9.5856
2026-04-18T09:58:10.858Z,42429.0,2064.0,2163.0,0.0,-2.3486,0.5336,9.5856
2026-04-18T09:58:10.859Z,42449.0,2064.0,2169.0,0.0,-2.3486,0.5336,9.5856
2026-04-18T09:58:10.859Z,42469.0,2064.0,2169.0,0.0,-2.3486,0.5336,9.5856
2026-04-18T09:58:10.922Z,42489.0,2064.0,2170.0,0.0,-2.3486,0.5336,9.5856
2026-04-18T09:58:10.922Z,42509.0,2064.0,2170.0,0.0,-2.3474,0.524,9.5833
2026-04-18T09:58:10.923Z,42529.0,2064.0,2181.0,0.0,-2.3486,0.524,9.5809
2026-04-18T09:58:10.985Z,42549.0,2064.0,2181.0,0.0,-2.3486,0.524,9.5809
2026-04-18T09:58:10.985Z,42569.0,2064.0,2198.0,0.0,-2.3486,0.5264,9.5833
2026-04-18T09:58:10.986Z,42589.0,2064.0,2198.0,0.0,-2.3426,0.5252,9.594
2026-04-18T09:58:11.048Z,42609.0,2064.0,2200.0,0.0,-2.3426,0.5252,9.594
2026-04-18T09:58:11.048Z,42629.0,2064.0,2200.0,0.0,-2.3474,0.5252,9.5868
2026-04-18T09:58:11.049Z,42649.0,2064.0,2194.0,0.0,-2.3474,0.5252,9.5868
2026-04-18T09:58:11.111Z,42669.0,2064.0,2194.0,0.0,-2.3569,0.5276,9.5821
2026-04-18T09:58:11.111Z,42689.0,2064.0,2178.0,0.0,-2.3569,0.5276,9.5821
2026-04-18T09:58:11.112Z,42709.0,2064.0,2178.0,0.0,-2.3557,0.5276,9.5809
2026-04-18T09:58:11.154Z,42729.0,2064.0,2162.0,0.0,-2.3474,0.5276,9.5809
2026-04-18T09:58:11.154Z,42750.0,2064.0,2162.0,0.0,-2.3474,0.5276,9.5809
2026-04-18T09:58:11.155Z,42770.0,2064.0,2147.0,0.0,-2.3474,0.5276,9.5809
2026-04-18T09:58:11.217Z,42790.0,2064.0,2147.0,0.0,-2.3438,0.524,9.5856
2026-04-18T09:58:11.217Z,42810.0,2064.0,2137.0,0.0,-2.3438,0.524,9.5856
2026-04-18T09:58:11.218Z,42830.0,2064.0,2137.0,0.0,-2.3521,0.5276,9.5833
2026-04-18T09:58:11.279Z,42852.0,2064.0,2132.0,0.0,-2.3521,0.53,9.5845
2026-04-18T09:58:11.279Z,42871.0,2064.0,2132.0,0.0,-2.3521,0.53,9.5845
2026-04-18T09:58:11.279Z,42891.0,2064.0,2126.0,0.0,-2.3509,0.5228,9.5868
2026-04-18T09:58:11.403Z,42911.0,2064.0,2126.0,0.0,-2.3509,0.5228,9.5868
2026-04-18T09:58:11.406Z,42931.0,2064.0,2116.0,0.0,-2.3474,0.524,9.5833
2026-04-18T09:58:11.406Z,42953.0,2064.0,2116.0,0.0,-2.3677,0.5372,9.5821
2026-04-18T09:58:11.407Z,42972.0,2064.0,2114.0,0.0,-2.3677,0.5372,9.5821
2026-04-18T09:58:11.408Z,42992.0,2064.0,2114.0,0.0,-2.3533,0.5312,9.5809
2026-04-18T09:58:11.469Z,43012.0,2064.0,2124.0,0.0,-2.3533,0.5312,9.5809
2026-04-18T09:58:11.470Z,43032.0,2064.0,2124.0,0.0,-2.3462,0.5157,9.5833
2026-04-18T09:58:11.470Z,43052.0,2064.0,2153.0,0.0,-2.3462,0.5157,9.5833
2026-04-18T09:58:11.471Z,43072.0,2064.0,2153.0,0.0,-2.3498,0.5192,9.5868
2026-04-18T09:58:11.535Z,43092.0,2064.0,2189.0,0.0,-2.3438,0.524,9.5916
2026-04-18T09:58:11.535Z,43112.0,2064.0,2189.0,0.0,-2.3438,0.524,9.5916
2026-04-18T09:58:11.536Z,43129.0,2064.0,2204.0,0.0,-2.339,0.5252,9.5868
2026-04-18T09:58:11.577Z,43149.0,2064.0,2204.0,0.0,-2.339,0.5252,9.5868
2026-04-18T09:58:11.577Z,43169.0,2064.0,2198.0,0.0,-2.3509,0.5264,9.5821
2026-04-18T09:58:11.577Z,43189.0,2064.0,2198.0,0.0,-2.3665,0.5276,9.5761
2026-04-18T09:58:11.639Z,43209.0,2064.0,2193.0,0.0,-2.3665,0.5276,9.5761
2026-04-18T09:58:11.639Z,43229.0,2064.0,2193.0,0.0,-2.3438,0.524,9.5833
2026-04-18T09:58:11.639Z,43249.0,2064.0,2197.0,0.0,-2.3438,0.524,9.5833
2026-04-18T09:58:11.702Z,43269.0,2064.0,2197.0,0.0,-2.3438,0.524,9.5833
2026-04-18T09:58:11.763Z,43289.0,2064.0,2204.0,0.0,-2.3438,0.524,9.5833
2026-04-18T09:58:11.763Z,43309.0,2064.0,2204.0,0.0,-2.3438,0.524,9.5833
2026-04-18T09:58:11.764Z,43329.0,2064.0,2203.0,0.0,-2.3438,0.524,9.5833
2026-04-18T09:58:11.764Z,43349.0,2064.0,2203.0,0.0,-2.3438,0.524,9.5833
2026-04-18T09:58:11.765Z,43369.0,2064.0,2180.0,0.0,-2.3438,0.524,9.5833
2026-04-18T09:58:11.827Z,43389.0,2064.0,2180.0,0.0,-2.3438,0.524,9.5833
2026-04-18T09:58:11.827Z,43409.0,2064.0,2150.0,0.0,-2.3438,0.524,9.5833
2026-04-18T09:58:11.827Z,43429.0,2064.0,2150.0,0.0,-2.3438,0.524,9.5833
2026-04-18T09:58:11.893Z,43449.0,2064.0,2128.0,0.0,-2.3438,0.524,9.5833
2026-04-18T09:58:11.893Z,43469.0,2064.0,2128.0,0.0,-2.3438,0.524,9.5833
2026-04-18T09:58:11.894Z,43489.0,2064.0,2110.0,0.0,-2.3438,0.524,9.5833
2026-04-18T09:58:11.936Z,43509.0,2064.0,2110.0,0.0,-2.345,0.5288,9.5856
2026-04-18T09:58:11.936Z,43529.0,2064.0,2096.0,0.0,-2.3521,0.518,9.5809
2026-04-18T09:58:11.936Z,43549.0,2064.0,2096.0,0.0,-2.3521,0.518,9.5809
2026-04-18T09:58:11.998Z,43569.0,2064.0,2095.0,0.0,-2.3474,0.5192,9.5833
2026-04-18T09:58:11.998Z,43589.0,2064.0,2095.0,0.0,-2.3509,0.5324,9.5809
2026-04-18T09:58:11.999Z,43609.0,2064.0,2086.0,0.0,-2.3509,0.5324,9.5809
2026-04-18T09:58:12.122Z,43629.0,2064.0,2086.0,0.0,-2.3509,0.5324,9.5809
2026-04-18T09:58:12.123Z,43649.0,2064.0,2079.0,0.0,-2.3521,0.5276,9.5821
2026-04-18T09:58:12.123Z,43670.0,2064.0,2079.0,0.0,-2.3521,0.5276,9.5821
2026-04-18T09:58:12.123Z,43690.0,2064.0,2082.0,0.0,-2.3498,0.5168,9.5821
2026-04-18T09:58:12.123Z,43710.0,2064.0,2082.0,0.0,-2.3498,0.5216,9.5845
2026-04-18T09:58:12.124Z,43730.0,2064.0,2097.0,0.0,-2.3498,0.5216,9.5845
2026-04-18T09:58:12.207Z,43750.0,2064.0,2097.0,0.0,-2.3533,0.5264,9.5856
2026-04-18T09:58:12.231Z,43770.0,2064.0,2112.0,0.0,-2.3533,0.5264,9.5856
2026-04-18T09:58:12.232Z,43791.0,2064.0,2112.0,0.0,-2.3486,0.5204,9.5868
2026-04-18T09:58:12.256Z,43811.0,2064.0,2129.0,0.0,-2.3486,0.5204,9.5868
2026-04-18T09:58:12.257Z,43831.0,2064.0,2129.0,0.0,-2.3462,0.5264,9.5821
2026-04-18T09:58:12.257Z,43851.0,2064.0,2129.0,0.0,-2.3509,0.5312,9.5868
2026-04-18T09:58:12.301Z,43871.0,2064.0,2129.0,0.0,-2.3509,0.5312,9.5868
2026-04-18T09:58:12.301Z,43891.0,2064.0,2129.0,0.0,-2.3653,0.5264,9.5845
2026-04-18T09:58:12.302Z,43911.0,2064.0,2129.0,0.0,-2.3653,0.5264,9.5845
2026-04-18T09:58:12.426Z,43932.0,2064.0,2136.0,0.0,-2.3557,0.5228,9.5797
2026-04-18T09:58:12.427Z,43951.0,2064.0,2136.0,0.0,-2.3378,0.5216,9.5868
2026-04-18T09:58:12.427Z,43972.0,2064.0,2145.0,0.0,-2.3378,0.5216,9.5868
2026-04-18T09:58:12.428Z,43991.0,2064.0,2145.0,0.0,-2.3486,0.5216,9.5821
2026-04-18T09:58:12.428Z,44011.0,2064.0,2154.0,0.0,-2.3486,0.5216,9.5821
2026-04-18T09:58:12.429Z,44031.0,2064.0,2154.0,0.0,-2.3533,0.524,9.5809
2026-04-18T09:58:12.473Z,44051.0,2064.0,2165.0,0.0,-2.3533,0.524,9.5809
2026-04-18T09:58:12.473Z,44072.0,2064.0,2165.0,0.0,-2.3509,0.5276,9.5833
2026-04-18T09:58:12.474Z,44091.0,2064.0,2165.0,0.0,-2.3486,0.524,9.5833
2026-04-18T09:58:12.535Z,44111.0,2064.0,2165.0,0.0,-2.3486,0.524,9.5833
2026-04-18T09:58:12.535Z,44131.0,2064.0,2157.0,0.0,-2.345,0.5192,9.5809
2026-04-18T09:58:12.535Z,44151.0,2064.0,2157.0,0.0,-2.345,0.5192,9.5809
2026-04-18T09:58:12.597Z,44171.0,2064.0,2142.0,0.0,-2.345,0.5204,9.5785
2026-04-18T09:58:12.598Z,44191.0,2064.0,2142.0,0.0,-2.345,0.5204,9.5785
2026-04-18T09:58:12.598Z,44211.0,2067.0,2132.0,0.0,-2.3593,0.5384,9.5797
2026-04-18T09:58:12.661Z,44231.0,2067.0,2132.0,0.0,-2.3474,0.5252,9.5833
2026-04-18T09:58:12.661Z,44251.0,2067.0,2121.0,0.0,-2.3474,0.5252,9.5833
2026-04-18T09:58:12.661Z,44269.0,2067.0,2121.0,0.0,-2.3426,0.5145,9.5856
2026-04-18T09:58:12.726Z,44289.0,2067.0,2110.0,0.0,-2.3426,0.5145,9.5856
2026-04-18T09:58:12.727Z,44309.0,2067.0,2110.0,0.0,-2.3426,0.5145,9.5856
2026-04-18T09:58:12.727Z,44329.0,2067.0,2097.0,0.0,-2.3426,0.5145,9.5856
2026-04-18T09:58:12.791Z,44349.0,2067.0,2097.0,0.0,-2.3426,0.5145,9.5856
2026-04-18T09:58:12.792Z,44369.0,2067.0,2083.0,0.0,-2.3426,0.5145,9.5856
2026-04-18T09:58:12.793Z,44389.0,2067.0,2083.0,0.0,-2.3426,0.5145,9.5856
2026-04-18T09:58:12.835Z,44409.0,2067.0,2068.0,0.0,-2.3426,0.5145,9.5856
2026-04-18T09:58:12.835Z,44429.0,2067.0,2068.0,0.0,-2.3426,0.5145,9.5856
2026-04-18T09:58:12.835Z,44449.0,2067.0,2061.0,0.0,-2.3426,0.5145,9.5856
2026-04-18T09:58:12.897Z,44469.0,2067.0,2061.0,0.0,-2.3426,0.5145,9.5856
2026-04-18T09:58:12.897Z,44489.0,2067.0,2081.0,0.0,-2.3426,0.5145,9.5856
2026-04-18T09:58:12.898Z,44509.0,2067.0,2081.0,0.0,-2.3414,0.5192,9.5856
2026-04-18T09:58:12.963Z,44529.0,2067.0,2106.0,0.0,-2.3414,0.5192,9.5856
2026-04-18T09:58:12.963Z,44549.0,2067.0,2106.0,0.0,-2.3414,0.5085,9.5868
2026-04-18T09:58:12.964Z,44569.0,2067.0,2114.0,0.0,-2.3414,0.5085,9.5868
2026-04-18T09:58:13.025Z,44589.0,2067.0,2114.0,0.0,-2.3498,0.5276,9.5868
2026-04-18T09:58:13.025Z,44610.0,2067.0,2116.0,0.0,-2.3569,0.53,9.5856
2026-04-18T09:58:13.025Z,44631.0,2067.0,2116.0,0.0,-2.3569,0.53,9.5856
2026-04-18T09:58:13.151Z,44650.0,2067.0,2116.0,0.0,-2.3498,0.5228,9.5833
2026-04-18T09:58:13.151Z,44670.0,2067.0,2116.0,0.0,-2.3498,0.5228,9.5833
2026-04-18T09:58:13.152Z,44690.0,2067.0,2121.0,0.0,-2.3521,0.5264,9.5797
2026-04-18T09:58:13.153Z,44710.0,2067.0,2121.0,0.0,-2.3462,0.5276,9.5856
2026-04-18T09:58:13.153Z,44731.0,2067.0,2132.0,0.0,-2.3462,0.5276,9.5856
2026-04-18T09:58:13.196Z,44751.0,2067.0,2132.0,0.0,-2.339,0.5157,9.5856
2026-04-18T09:58:13.197Z,44771.0,2067.0,2144.0,0.0,-2.339,0.5157,9.5856
2026-04-18T09:58:13.197Z,44791.0,2067.0,2144.0,0.0,-2.3402,0.5168,9.5845
2026-04-18T09:58:13.198Z,44811.0,2067.0,2146.0,0.0,-2.3402,0.5168,9.5845
2026-04-18T09:58:13.260Z,44831.0,2067.0,2146.0,0.0,-2.3557,0.5324,9.5845
2026-04-18T09:58:13.260Z,44851.0,2067.0,2145.0,0.0,-2.3557,0.5348,9.5833
2026-04-18T09:58:13.261Z,44871.0,2067.0,2145.0,0.0,-2.3557,0.5348,9.5833
2026-04-18T09:58:13.323Z,44891.0,2067.0,2135.0,0.0,-2.3414,0.5168,9.5868
2026-04-18T09:58:13.324Z,44911.0,2067.0,2135.0,0.0,-2.3414,0.5168,9.5868
2026-04-18T09:58:13.325Z,44931.0,2067.0,2131.0,0.0,-2.3486,0.518,9.5868
2026-04-18T09:58:13.388Z,44951.0,2067.0,2131.0,0.0,-2.3486,0.518,9.5868
2026-04-18T09:58:13.390Z,44971.0,2067.0,2121.0,0.0,-2.3629,0.5396,9.5809
2026-04-18T09:58:13.391Z,44992.0,2064.0,2121.0,0.0,-2.3533,0.5336,9.5821
2026-04-18T09:58:13.434Z,45011.0,2064.0,2115.0,0.0,-2.3533,0.5336,9.5821
2026-04-18T09:58:13.434Z,45031.0,2064.0,2115.0,0.0,-2.3414,0.5085,9.5856
2026-04-18T09:58:13.435Z,45051.0,2064.0,2105.0,0.0,-2.3414,0.5085,9.5856
2026-04-18T09:58:13.497Z,45071.0,2064.0,2105.0,0.0,-2.3545,0.5192,9.5856
2026-04-18T09:58:13.497Z,45092.0,2064.0,2104.0,0.0,-2.3521,0.536,9.5809
2026-04-18T09:58:13.498Z,45111.0,2064.0,2104.0,0.0,-2.3521,0.536,9.5809
2026-04-18T09:58:13.560Z,45131.0,2064.0,2099.0,0.0,-2.3521,0.5288,9.5785
2026-04-18T09:58:13.566Z,45152.0,2064.0,2099.0,0.0,-2.3521,0.5288,9.5785
2026-04-18T09:58:13.567Z,45171.0,2064.0,2090.0,0.0,-2.3462,0.5145,9.5892
2026-04-18T09:58:13.630Z,45191.0,2064.0,2090.0,0.0,-2.3462,0.5145,9.5892
2026-04-18T09:58:13.673Z,45211.0,2064.0,2094.0,0.0,-2.3557,0.5288,9.5833
2026-04-18T09:58:13.674Z,45231.0,2064.0,2094.0,0.0,-2.3521,0.5396,9.5785
2026-04-18T09:58:13.674Z,45252.0,2064.0,2108.0,0.0,-2.3521,0.5396,9.5785
2026-04-18T09:58:13.676Z,45269.0,2064.0,2108.0,0.0,-2.3521,0.5192,9.5797
2026-04-18T09:58:13.676Z,45289.0,2064.0,2123.0,0.0,-2.3521,0.5192,9.5797
2026-04-18T09:58:13.738Z,45309.0,2064.0,2123.0,0.0,-2.3521,0.5192,9.5797
2026-04-18T09:58:13.739Z,45329.0,2064.0,2133.0,0.0,-2.3521,0.5192,9.5797
2026-04-18T09:58:13.739Z,45349.0,2064.0,2133.0,0.0,-2.3521,0.5192,9.5797
2026-04-18T09:58:13.862Z,45369.0,2064.0,2141.0,0.0,-2.3521,0.5192,9.5797
2026-04-18T09:58:13.863Z,45389.0,2064.0,2141.0,0.0,-2.3521,0.5192,9.5797
2026-04-18T09:58:13.864Z,45410.0,2064.0,2146.0,0.0,-2.3521,0.5192,9.5797
2026-04-18T09:58:13.864Z,45429.0,2064.0,2146.0,0.0,-2.3521,0.5192,9.5797
2026-04-18T09:58:13.865Z,45449.0,2064.0,2152.0,0.0,-2.3521,0.5192,9.5797
2026-04-18T09:58:13.927Z,45469.0,2064.0,2152.0,0.0,-2.3521,0.5192,9.5797
2026-04-18T09:58:13.928Z,45489.0,2064.0,2157.0,0.0,-2.3521,0.5192,9.5797
2026-04-18T09:58:13.933Z,45510.0,2064.0,2157.0,0.0,-2.3521,0.5192,9.5797
2026-04-18T09:58:13.933Z,45530.0,2064.0,2159.0,0.0,-2.3533,0.5264,9.5833
2026-04-18T09:58:13.978Z,45551.0,2064.0,2159.0,0.0,-2.3426,0.5192,9.5821
2026-04-18T09:58:13.978Z,45571.0,2064.0,2164.0,0.0,-2.3426,0.5192,9.5821
2026-04-18T09:58:13.978Z,45591.0,2064.0,2164.0,0.0,-2.3426,0.5276,9.5809
2026-04-18T09:58:14.040Z,45611.0,2064.0,2160.0,0.0,-2.3462,0.518,9.5833
2026-04-18T09:58:14.164Z,45631.0,2064.0,2160.0,0.0,-2.3462,0.518,9.5833
2026-04-18T09:58:14.164Z,45652.0,2064.0,2147.0,0.0,-2.3533,0.5228,9.5833
2026-04-18T09:58:14.164Z,45671.0,2064.0,2147.0,0.0,-2.3533,0.5228,9.5833
2026-04-18T09:58:14.164Z,45691.0,2064.0,2125.0,0.0,-2.3617,0.5348,9.5761
2026-04-18T09:58:14.164Z,45711.0,2064.0,2125.0,0.0,-2.3569,0.53,9.5856
2026-04-18T09:58:14.227Z,45731.0,2064.0,2117.0,0.0,-2.3569,0.53,9.5856
2026-04-18T09:58:14.227Z,45751.0,2064.0,2117.0,0.0,-2.345,0.518,9.5833
2026-04-18T09:58:14.227Z,45771.0,2064.0,2115.0,0.0,-2.345,0.518,9.5833
2026-04-18T09:58:14.227Z,45791.0,2064.0,2115.0,0.0,-2.3462,0.524,9.5821
2026-04-18T09:58:14.229Z,45811.0,2064.0,2121.0,0.0,-2.3462,0.524,9.5821
2026-04-18T09:58:14.291Z,45831.0,2064.0,2121.0,0.0,-2.3426,0.5276,9.5833
2026-04-18T09:58:14.292Z,45851.0,2064.0,2124.0,0.0,-2.3474,0.5228,9.5868
2026-04-18T09:58:14.293Z,45871.0,2064.0,2124.0,0.0,-2.3474,0.5228,9.5868
2026-04-18T09:58:14.293Z,45891.0,2064.0,2126.0,0.0,-2.3486,0.5228,9.5833
2026-04-18T09:58:14.335Z,45911.0,2064.0,2126.0,0.0,-2.3486,0.5228,9.5833
2026-04-18T09:58:14.335Z,45932.0,2064.0,2115.0,0.0,-2.3521,0.5276,9.5833
2026-04-18T09:58:14.336Z,45951.0,2064.0,2115.0,0.0,-2.3521,0.5276,9.5833
2026-04-18T09:58:14.398Z,45972.0,2064.0,2112.0,0.0,-2.3581,0.5288,9.5797
2026-04-18T09:58:14.399Z,45991.0,2064.0,2112.0,0.0,-2.3581,0.5288,9.5809
2026-04-18T09:58:14.399Z,46012.0,2064.0,2121.0,0.0,-2.3581,0.5288,9.5809
2026-04-18T09:58:14.461Z,46031.0,2064.0,2121.0,0.0,-2.3486,0.5216,9.5856
2026-04-18T09:58:14.463Z,46051.0,2064.0,2140.0,0.0,-2.3486,0.5216,9.5856
2026-04-18T09:58:14.463Z,46072.0,2064.0,2140.0,0.0,-2.3521,0.5228,9.5821
2026-04-18T09:58:14.525Z,46092.0,2064.0,2162.0,0.0,-2.3474,0.5216,9.5845
2026-04-18T09:58:14.525Z,46113.0,2064.0,2162.0,0.0,-2.3474,0.5216,9.5845
2026-04-18T09:58:14.525Z,46132.0,2064.0,2186.0,0.0,-2.3414,0.5192,9.5904
2026-04-18T09:58:14.588Z,46152.0,2064.0,2186.0,0.0,-2.3414,0.5192,9.5904
2026-04-18T09:58:14.650Z,46172.0,2064.0,2193.0,0.0,-2.3521,0.5288,9.5833
2026-04-18T09:58:14.692Z,46189.0,2064.0,2193.0,0.0,-2.3521,0.5288,9.5833
2026-04-18T09:58:14.714Z,46209.0,2064.0,2193.0,0.0,-2.3641,0.5288,9.5845
2026-04-18T09:58:14.714Z,46229.0,2064.0,2193.0,0.0,-2.3569,0.5216,9.5856
2026-04-18T09:58:14.715Z,46249.0,2064.0,2198.0,0.0,-2.3569,0.5216,9.5856
2026-04-18T09:58:14.716Z,46269.0,2064.0,2198.0,0.0,-2.3569,0.5216,9.5856
2026-04-18T09:58:14.758Z,46289.0,2064.0,2204.0,0.0,-2.3569,0.5216,9.5856
2026-04-18T09:58:14.758Z,46309.0,2064.0,2204.0,0.0,-2.3569,0.5216,9.5856
2026-04-18T09:58:14.758Z,46329.0,2064.0,2210.0,0.0,-2.3569,0.5216,9.5856
2026-04-18T09:58:14.758Z,46349.0,2064.0,2210.0,0.0,-2.3569,0.5216,9.5856
2026-04-18T09:58:14.759Z,46369.0,2064.0,2213.0,0.0,-2.3569,0.5216,9.5856
2026-04-18T09:58:14.881Z,46389.0,2064.0,2213.0,0.0,-2.3569,0.5216,9.5856
2026-04-18T09:58:14.882Z,46409.0,2064.0,2214.0,0.0,-2.3569,0.5216,9.5856
2026-04-18T09:58:14.882Z,46429.0,2064.0,2214.0,0.0,-2.3569,0.5216,9.5856
2026-04-18T09:58:14.883Z,46449.0,2064.0,2205.0,0.0,-2.3569,0.5216,9.5856
2026-04-18T09:58:14.884Z,46469.0,2064.0,2205.0,0.0,-2.3569,0.5216,9.5856
2026-04-18T09:58:14.945Z,46489.0,2064.0,2188.0,0.0,-2.3569,0.5216,9.5856
2026-04-18T09:58:14.946Z,46509.0,2064.0,2188.0,0.0,-2.3521,0.5276,9.5821
2026-04-18T09:58:14.947Z,46529.0,2064.0,2171.0,0.0,-2.3462,0.5264,9.5845
2026-04-18T09:58:14.947Z,46549.0,2064.0,2171.0,0.0,-2.3462,0.5264,9.5845
2026-04-18T09:58:15.010Z,46569.0,2064.0,2162.0,0.0,-2.345,0.518,9.5845
2026-04-18T09:58:15.014Z,46589.0,2064.0,2162.0,0.0,-2.345,0.518,9.5845
2026-04-18T09:58:15.016Z,46609.0,2064.0,2158.0,0.0,-2.3545,0.524,9.5856
2026-04-18T09:58:15.059Z,46629.0,2064.0,2158.0,0.0,-2.3462,0.53,9.5856
2026-04-18T09:58:15.061Z,46649.0,2064.0,2156.0,0.0,-2.3462,0.53,9.5856
2026-04-18T09:58:15.061Z,46669.0,2064.0,2156.0,0.0,-2.3509,0.5228,9.5833
2026-04-18T09:58:15.123Z,46689.0,2064.0,2151.0,0.0,-2.3509,0.5228,9.5833
2026-04-18T09:58:15.124Z,46709.0,2067.0,2151.0,0.0,-2.3509,0.5228,9.5833
2026-04-18T09:58:15.124Z,46729.0,2067.0,2149.0,0.0,-2.3486,0.5348,9.5856
2026-04-18T09:58:15.188Z,46749.0,2067.0,2149.0,0.0,-2.3486,0.5348,9.5856
2026-04-18T09:58:15.188Z,46770.0,2067.0,2154.0,0.0,-2.3486,0.5348,9.5856
2026-04-18T09:58:15.189Z,46791.0,2067.0,2154.0,0.0,-2.3486,0.524,9.5845
2026-04-18T09:58:15.251Z,46810.0,2067.0,2169.0,0.0,-2.3486,0.524,9.5845
2026-04-18T09:58:15.254Z,46830.0,2067.0,2169.0,0.0,-2.3462,0.5204,9.5856
2026-04-18T09:58:15.255Z,46850.0,2067.0,2190.0,0.0,-2.345,0.5288,9.5868
2026-04-18T09:58:15.297Z,46870.0,2067.0,2190.0,0.0,-2.345,0.5288,9.5868
2026-04-18T09:58:15.297Z,46893.0,2067.0,2218.0,0.0,-2.3486,0.53,9.5833
2026-04-18T09:58:15.297Z,46912.0,2067.0,2218.0,0.0,-2.3486,0.53,9.5833
2026-04-18T09:58:15.417Z,46933.0,2067.0,2252.0,0.0,-2.3498,0.5228,9.5821
2026-04-18T09:58:15.418Z,46952.0,2067.0,2252.0,0.0,-2.3498,0.5228,9.5821
2026-04-18T09:58:15.418Z,46972.0,2067.0,2287.0,0.0,-2.3426,0.5192,9.5892
2026-04-18T09:58:15.441Z,46993.0,2067.0,2287.0,0.0,-2.3486,0.53,9.5845
2026-04-18T09:58:15.441Z,47012.0,2067.0,2314.0,0.0,-2.3486,0.53,9.5845
2026-04-18T09:58:15.441Z,47033.0,2067.0,2314.0,0.0,-2.345,0.5228,9.5868
2026-04-18T09:58:15.483Z,47052.0,2067.0,2314.0,0.0,-2.345,0.5228,9.5868
2026-04-18T09:58:15.483Z,47072.0,2067.0,2314.0,0.0,-2.3581,0.5145,9.588
2026-04-18T09:58:15.483Z,47092.0,2067.0,2314.0,0.0,-2.3462,0.518,9.5809
2026-04-18T09:58:15.608Z,47112.0,2067.0,2314.0,0.0,-2.3462,0.518,9.5809
2026-04-18T09:58:15.608Z,47133.0,2067.0,2318.0,0.0,-2.345,0.5288,9.5868
2026-04-18T09:58:15.610Z,47153.0,2067.0,2318.0,0.0,-2.345,0.5288,9.5868
2026-04-18T09:58:15.610Z,47169.0,2067.0,2315.0,0.0,-2.3498,0.5276,9.5868
2026-04-18T09:58:15.611Z,47189.0,2067.0,2315.0,0.0,-2.3498,0.5276,9.5868
2026-04-18T09:58:15.653Z,47209.0,2067.0,2303.0,0.0,-2.3593,0.5192,9.5845
2026-04-18T09:58:15.653Z,47229.0,2067.0,2303.0,0.0,-2.3509,0.5228,9.5856
2026-04-18T09:58:15.654Z,47249.0,2064.0,2295.0,0.0,-2.3509,0.5228,9.5856
2026-04-18T09:58:15.675Z,47269.0,2064.0,2295.0,0.0,-2.3509,0.5228,9.5856
2026-04-18T09:58:15.719Z,47289.0,2064.0,2284.0,0.0,-2.3509,0.5228,9.5856
2026-04-18T09:58:15.719Z,47309.0,2064.0,2284.0,0.0,-2.3509,0.5228,9.5856
2026-04-18T09:58:15.719Z,47329.0,2064.0,2274.0,0.0,-2.3509,0.5228,9.5856
2026-04-18T09:58:15.781Z,47349.0,2064.0,2274.0,0.0,-2.3509,0.5228,9.5856
2026-04-18T09:58:15.781Z,47369.0,2064.0,2265.0,0.0,-2.3509,0.5228,9.5856
2026-04-18T09:58:15.781Z,47389.0,2064.0,2265.0,0.0,-2.3509,0.5228,9.5856
2026-04-18T09:58:15.843Z,47409.0,2064.0,2265.0,0.0,-2.3509,0.5228,9.5856
2026-04-18T09:58:15.904Z,47429.0,2064.0,2265.0,0.0,-2.3509,0.5228,9.5856
2026-04-18T09:58:15.904Z,47449.0,2064.0,2267.0,0.0,-2.3509,0.5228,9.5856
2026-04-18T09:58:15.906Z,47469.0,2064.0,2267.0,0.0,-2.3509,0.5228,9.5856
2026-04-18T09:58:15.906Z,47489.0,2064.0,2277.0,0.0,-2.3509,0.5228,9.5856
2026-04-18T09:58:15.907Z,47509.0,2064.0,2277.0,0.0,-2.3557,0.53,9.5845
2026-04-18T09:58:15.969Z,47529.0,2064.0,2290.0,0.0,-2.3498,0.5288,9.5892
2026-04-18T09:58:15.969Z,47549.0,2064.0,2290.0,0.0,-2.3498,0.5288,9.5892
2026-04-18T09:58:15.970Z,47569.0,2064.0,2309.0,0.0,-2.345,0.5145,9.5856
2026-04-18T09:58:16.014Z,47589.0,2064.0,2309.0,0.0,-2.345,0.5145,9.5856
2026-04-18T09:58:16.017Z,47609.0,2064.0,2328.0,0.0,-2.345,0.5145,9.5856
2026-04-18T09:58:16.039Z,47629.0,2064.0,2328.0,0.0,-2.3474,0.5216,9.588
2026-04-18T09:58:16.081Z,47649.0,2064.0,2340.0,0.0,-2.3498,0.524,9.5892
2026-04-18T09:58:16.083Z,47669.0,2064.0,2340.0,0.0,-2.3498,0.524,9.5892
2026-04-18T09:58:16.085Z,47689.0,2064.0,2345.0,0.0,-2.3438,0.5204,9.5856
2026-04-18T09:58:16.147Z,47710.0,2064.0,2345.0,0.0,-2.3438,0.5204,9.5856
2026-04-18T09:58:16.147Z,47730.0,2064.0,2351.0,0.0,-2.3545,0.5252,9.5821
2026-04-18T09:58:16.149Z,47750.0,2064.0,2351.0,0.0,-2.3581,0.5228,9.5833
2026-04-18T09:58:16.213Z,47770.0,2064.0,2363.0,0.0,-2.3581,0.5228,9.5833
2026-04-18T09:58:16.213Z,47791.0,2064.0,2363.0,0.0,-2.3509,0.524,9.5833
2026-04-18T09:58:16.214Z,47810.0,2064.0,2365.0,0.0,-2.3509,0.524,9.5833
2026-04-18T09:58:16.264Z,47831.0,2064.0,2365.0,0.0,-2.345,0.5216,9.5821
2026-04-18T09:58:16.264Z,47850.0,2064.0,2375.0,0.0,-2.345,0.5216,9.5821
2026-04-18T09:58:16.265Z,47871.0,2068.0,2375.0,0.0,-2.3486,0.5133,9.5833
2026-04-18T09:58:16.327Z,47892.0,2068.0,2389.0,0.0,-2.3521,0.518,9.5797
2026-04-18T09:58:16.327Z,47912.0,2068.0,2389.0,0.0,-2.3521,0.518,9.5797
2026-04-18T09:58:16.328Z,47932.0,2068.0,2401.0,0.0,-2.3426,0.5336,9.5856
2026-04-18T09:58:16.390Z,47952.0,2068.0,2401.0,0.0,-2.3426,0.5336,9.5856
2026-04-18T09:58:16.393Z,47973.0,2068.0,2404.0,0.0,-2.345,0.5168,9.5916
2026-04-18T09:58:16.393Z,47989.0,2068.0,2404.0,0.0,-2.3402,0.5073,9.5892
2026-04-18T09:58:16.435Z,48009.0,2068.0,2398.0,0.0,-2.3402,0.5073,9.5892
2026-04-18T09:58:16.435Z,48029.0,2068.0,2398.0,0.0,-2.3521,0.5312,9.5833
2026-04-18T09:58:16.436Z,48049.0,2068.0,2383.0,0.0,-2.3521,0.5312,9.5833
2026-04-18T09:58:16.498Z,48069.0,2068.0,2383.0,0.0,-2.3605,0.5336,9.5868
2026-04-18T09:58:16.498Z,48089.0,2068.0,2358.0,0.0,-2.3498,0.5192,9.5868
2026-04-18T09:58:16.500Z,48109.0,2068.0,2358.0,0.0,-2.3498,0.5192,9.5868
2026-04-18T09:58:16.623Z,48129.0,2068.0,2333.0,0.0,-2.3402,0.5085,9.5868
2026-04-18T09:58:16.623Z,48149.0,2068.0,2333.0,0.0,-2.3402,0.5085,9.5868
2026-04-18T09:58:16.625Z,48169.0,2068.0,2322.0,0.0,-2.3545,0.5216,9.5785
2026-04-18T09:58:16.625Z,48189.0,2068.0,2322.0,0.0,-2.3545,0.524,9.5821
2026-04-18T09:58:16.687Z,48209.0,2068.0,2321.0,0.0,-2.3545,0.524,9.5821
2026-04-18T09:58:16.688Z,48229.0,2065.0,2321.0,0.0,-2.3474,0.5204,9.5856
2026-04-18T09:58:16.688Z,48250.0,2065.0,2329.0,0.0,-2.3474,0.5204,9.5856
2026-04-18T09:58:16.689Z,48269.0,2065.0,2329.0,0.0,-2.3474,0.5204,9.5856
2026-04-18T09:58:16.689Z,48289.0,2065.0,2333.0,0.0,-2.3474,0.5204,9.5856
2026-04-18T09:58:16.733Z,48309.0,2065.0,2333.0,0.0,-2.3474,0.5204,9.5856
2026-04-18T09:58:16.756Z,48329.0,2065.0,2344.0,0.0,-2.3474,0.5204,9.5856
2026-04-18T09:58:16.757Z,48349.0,2065.0,2344.0,0.0,-2.3474,0.5204,9.5856
2026-04-18T09:58:16.800Z,48369.0,2065.0,2369.0,0.0,-2.3474,0.5204,9.5856
2026-04-18T09:58:16.800Z,48389.0,2065.0,2369.0,0.0,-2.3474,0.5204,9.5856
2026-04-18T09:58:16.801Z,48409.0,2065.0,2401.0,0.0,-2.3474,0.5204,9.5856
2026-04-18T09:58:16.863Z,48430.0,2065.0,2401.0,0.0,-2.3474,0.5204,9.5856
2026-04-18T09:58:16.863Z,48449.0,2065.0,2429.0,0.0,-2.3474,0.5204,9.5856
2026-04-18T09:58:16.864Z,48469.0,2065.0,2429.0,0.0,-2.3474,0.5204,9.5856
2026-04-18T09:58:16.926Z,48489.0,2065.0,2440.0,0.0,-2.3474,0.5204,9.5856
2026-04-18T09:58:16.926Z,48509.0,2065.0,2440.0,0.0,-2.3509,0.53,9.5892
2026-04-18T09:58:16.927Z,48529.0,2065.0,2441.0,0.0,-2.3474,0.5228,9.5833
2026-04-18T09:58:16.988Z,48549.0,2065.0,2441.0,0.0,-2.3474,0.5228,9.5833
2026-04-18T09:58:16.989Z,48569.0,2065.0,2433.0,0.0,-2.3462,0.5192,9.5845
2026-04-18T09:58:16.989Z,48589.0,2065.0,2433.0,0.0,-2.3462,0.5192,9.5845
2026-04-18T09:58:17.051Z,48609.0,2065.0,2428.0,0.0,-2.3462,0.5192,9.5845
2026-04-18T09:58:17.051Z,48629.0,2065.0,2428.0,0.0,-2.3498,0.524,9.5797
2026-04-18T09:58:17.052Z,48649.0,2065.0,2432.0,0.0,-2.3438,0.518,9.588
2026-04-18T09:58:17.094Z,48669.0,2065.0,2432.0,0.0,-2.3438,0.518,9.588
2026-04-18T09:58:17.094Z,48690.0,2065.0,2426.0,0.0,-2.3438,0.5192,9.5904
2026-04-18T09:58:17.095Z,48710.0,2065.0,2426.0,0.0,-2.3438,0.5192,9.5904
2026-04-18T09:58:17.156Z,48731.0,2065.0,2415.0,0.0,-2.3521,0.5192,9.5856
2026-04-18T09:58:17.156Z,48751.0,2065.0,2415.0,0.0,-2.3557,0.524,9.5892
2026-04-18T09:58:17.158Z,48771.0,2065.0,2400.0,0.0,-2.3557,0.524,9.5892
2026-04-18T09:58:17.222Z,48792.0,2065.0,2400.0,0.0,-2.3474,0.518,9.5892
2026-04-18T09:58:17.222Z,48813.0,2065.0,2382.0,0.0,-2.3474,0.518,9.5892
2026-04-18T09:58:17.222Z,48829.0,2065.0,2382.0,0.0,-2.3474,0.524,9.588
2026-04-18T09:58:17.345Z,48849.0,2065.0,2359.0,0.0,-2.3545,0.524,9.5856
2026-04-18T09:58:17.347Z,48869.0,2065.0,2359.0,0.0,-2.3545,0.524,9.5856
2026-04-18T09:58:17.349Z,48889.0,2065.0,2336.0,0.0,-2.3533,0.5228,9.5868
2026-04-18T09:58:17.352Z,48909.0,2065.0,2336.0,0.0,-2.3533,0.5228,9.5868
2026-04-18T09:58:17.353Z,48929.0,2065.0,2323.0,0.0,-2.3486,0.5157,9.5845
2026-04-18T09:58:17.353Z,48949.0,2065.0,2323.0,0.0,-2.3414,0.5145,9.5856
2026-04-18T09:58:17.397Z,48969.0,2065.0,2311.0,0.0,-2.3414,0.5145,9.5856
2026-04-18T09:58:17.397Z,48989.0,2065.0,2311.0,0.0,-2.3486,0.5204,9.5856
2026-04-18T09:58:17.398Z,49009.0,2061.0,2303.0,0.0,-2.3486,0.5204,9.5856
2026-04-18T09:58:17.463Z,49029.0,2061.0,2303.0,0.0,-2.3521,0.5228,9.5856
2026-04-18T09:58:17.463Z,49049.0,2061.0,2298.0,0.0,-2.3521,0.5228,9.5856
2026-04-18T09:58:17.464Z,49069.0,2061.0,2298.0,0.0,-2.3569,0.524,9.5868
2026-04-18T09:58:17.526Z,49089.0,2061.0,2305.0,0.0,-2.3533,0.5228,9.5868
2026-04-18T09:58:17.528Z,49109.0,2061.0,2305.0,0.0,-2.3533,0.5228,9.5868
2026-04-18T09:58:17.528Z,49129.0,2061.0,2330.0,0.0,-2.3486,0.5204,9.5856
2026-04-18T09:58:17.592Z,49149.0,2061.0,2330.0,0.0,-2.3486,0.5204,9.5856
2026-04-18T09:58:17.635Z,49169.0,2061.0,2364.0,0.0,-2.3426,0.5204,9.5856
2026-04-18T09:58:17.635Z,49189.0,2061.0,2364.0,0.0,-2.3462,0.5157,9.5904
2026-04-18T09:58:17.635Z,49209.0,2061.0,2393.0,0.0,-2.3462,0.5157,9.5904
2026-04-18T09:58:17.636Z,49229.0,2061.0,2393.0,0.0,-2.3414,0.5133,9.594
2026-04-18T09:58:17.636Z,49249.0,2061.0,2404.0,0.0,-2.3414,0.5133,9.594
2026-04-18T09:58:17.697Z,49269.0,2061.0,2404.0,0.0,-2.3414,0.5133,9.594
2026-04-18T09:58:17.697Z,49289.0,2061.0,2406.0,0.0,-2.3414,0.5133,9.594
2026-04-18T09:58:17.697Z,49310.0,2061.0,2406.0,0.0,-2.3414,0.5133,9.594
2026-04-18T09:58:17.760Z,49329.0,2061.0,2401.0,0.0,-2.3414,0.5133,9.594
2026-04-18T09:58:17.760Z,49349.0,2061.0,2401.0,0.0,-2.3414,0.5133,9.594
2026-04-18T09:58:17.760Z,49369.0,2061.0,2400.0,0.0,-2.3414,0.5133,9.594
2026-04-18T09:58:17.843Z,49389.0,2061.0,2400.0,0.0,-2.3414,0.5133,9.594
2026-04-18T09:58:17.844Z,49409.0,2061.0,2414.0,0.0,-2.3414,0.5133,9.594
2026-04-18T09:58:17.865Z,49429.0,2061.0,2414.0,0.0,-2.3414,0.5133,9.594
2026-04-18T09:58:17.885Z,49449.0,2061.0,2417.0,0.0,-2.3414,0.5133,9.594
2026-04-18T09:58:17.947Z,49469.0,2061.0,2417.0,0.0,-2.3414,0.5133,9.594
2026-04-18T09:58:17.947Z,49489.0,2061.0,2417.0,0.0,-2.3414,0.5133,9.594
2026-04-18T09:58:17.948Z,49509.0,2061.0,2417.0,0.0,-2.3414,0.5157,9.5904
2026-04-18T09:58:17.948Z,49529.0,2064.0,2408.0,0.0,-2.3486,0.5168,9.588
2026-04-18T09:58:17.948Z,49549.0,2064.0,2408.0,0.0,-2.3486,0.5168,9.588
2026-04-18T09:58:18.072Z,49570.0,2064.0,2393.0,0.0,-2.3486,0.5168,9.588
2026-04-18T09:58:18.073Z,49589.0,2064.0,2393.0,0.0,-2.3569,0.53,9.5856
2026-04-18T09:58:18.073Z,49610.0,2064.0,2373.0,0.0,-2.3569,0.53,9.5856
2026-04-18T09:58:18.074Z,49629.0,2064.0,2373.0,0.0,-2.3545,0.5276,9.5809
2026-04-18T09:58:18.074Z,49649.0,2064.0,2351.0,0.0,-2.3438,0.5133,9.5845
2026-04-18T09:58:18.075Z,49669.0,2064.0,2351.0,0.0,-2.3438,0.5133,9.5845
2026-04-18T09:58:18.116Z,49689.0,2064.0,2320.0,0.0,-2.3486,0.5168,9.5845
2026-04-18T09:58:18.117Z,49709.0,2064.0,2320.0,0.0,-2.3486,0.5168,9.5845
2026-04-18T09:58:18.118Z,49730.0,2064.0,2295.0,0.0,-2.3521,0.5252,9.5833
2026-04-18T09:58:18.179Z,49750.0,2064.0,2295.0,0.0,-2.3521,0.518,9.5821
2026-04-18T09:58:18.179Z,49770.0,2064.0,2273.0,0.0,-2.3521,0.518,9.5821
2026-04-18T09:58:18.180Z,49790.0,2067.0,2273.0,0.0,-2.3545,0.524,9.5809
2026-04-18T09:58:18.242Z,49810.0,2067.0,2255.0,0.0,-2.3545,0.524,9.5809
2026-04-18T09:58:18.242Z,49830.0,2067.0,2255.0,0.0,-2.3486,0.5228,9.5856
2026-04-18T09:58:18.243Z,49851.0,2067.0,2258.0,0.0,-2.3486,0.5228,9.5856
2026-04-18T09:58:18.368Z,49871.0,2067.0,2258.0,0.0,-2.3509,0.5228,9.588
2026-04-18T09:58:18.368Z,49891.0,2067.0,2284.0,0.0,-2.3593,0.5324,9.5845
2026-04-18T09:58:18.368Z,49911.0,2067.0,2284.0,0.0,-2.3593,0.5324,9.5845
2026-04-18T09:58:18.369Z,49932.0,2067.0,2325.0,0.0,-2.3521,0.5216,9.5892
2026-04-18T09:58:18.369Z,49951.0,2067.0,2325.0,0.0,-2.3521,0.5216,9.5892
2026-04-18T09:58:18.370Z,49971.0,2067.0,2368.0,0.0,-2.3414,0.5157,9.594
2026-04-18T09:58:18.414Z,49991.0,2067.0,2368.0,0.0,-2.3414,0.5157,9.594
2026-04-18T09:58:18.414Z,50011.0,2067.0,2395.0,0.0,-2.3426,0.518,9.5868
2026-04-18T09:58:18.415Z,50032.0,2067.0,2395.0,0.0,-2.3545,0.524,9.5785
2026-04-18T09:58:18.477Z,50049.0,2067.0,2398.0,0.0,-2.3545,0.524,9.5785
2026-04-18T09:58:18.477Z,50069.0,2067.0,2398.0,0.0,-2.3509,0.5228,9.588
2026-04-18T09:58:18.478Z,50089.0,2067.0,2399.0,0.0,-2.3509,0.5228,9.588
2026-04-18T09:58:18.540Z,50109.0,2067.0,2399.0,0.0,-2.3414,0.5216,9.5868
2026-04-18T09:58:18.543Z,50129.0,2067.0,2406.0,0.0,-2.3509,0.5192,9.5892
2026-04-18T09:58:18.549Z,50149.0,2067.0,2406.0,0.0,-2.3509,0.5192,9.5892
2026-04-18T09:58:18.595Z,50169.0,2067.0,2411.0,0.0,-2.3474,0.5168,9.5868
2026-04-18T09:58:18.595Z,50189.0,2064.0,2411.0,0.0,-2.3474,0.5168,9.5868
2026-04-18T09:58:18.596Z,50209.0,2064.0,2407.0,0.0,-2.3414,0.5145,9.5845
2026-04-18T09:58:18.679Z,50229.0,2064.0,2407.0,0.0,-2.345,0.5216,9.5833
2026-04-18T09:58:18.679Z,50249.0,2064.0,2399.0,0.0,-2.345,0.5216,9.5833
2026-04-18T09:58:18.679Z,50269.0,2064.0,2399.0,0.0,-2.345,0.5216,9.5833
2026-04-18T09:58:18.721Z,50289.0,2064.0,2381.0,0.0,-2.345,0.5216,9.5833
2026-04-18T09:58:18.721Z,50309.0,2064.0,2381.0,0.0,-2.345,0.5216,9.5833
2026-04-18T09:58:18.722Z,50329.0,2064.0,2352.0,0.0,-2.345,0.5216,9.5833
2026-04-18T09:58:18.784Z,50349.0,2064.0,2352.0,0.0,-2.345,0.5216,9.5833
2026-04-18T09:58:18.785Z,50369.0,2064.0,2327.0,0.0,-2.345,0.5216,9.5833
2026-04-18T09:58:18.786Z,50389.0,2064.0,2327.0,0.0,-2.345,0.5216,9.5833
2026-04-18T09:58:18.848Z,50409.0,2064.0,2301.0,0.0,-2.345,0.5216,9.5833
2026-04-18T09:58:18.850Z,50429.0,2064.0,2301.0,0.0,-2.345,0.5216,9.5833
2026-04-18T09:58:18.851Z,50449.0,2064.0,2281.0,0.0,-2.345,0.5216,9.5833
2026-04-18T09:58:18.913Z,50469.0,2064.0,2281.0,0.0,-2.345,0.5216,9.5833
2026-04-18T09:58:18.913Z,50489.0,2064.0,2274.0,0.0,-2.345,0.5216,9.5833
2026-04-18T09:58:18.914Z,50509.0,2064.0,2274.0,0.0,-2.3509,0.5348,9.5821
2026-04-18T09:58:18.977Z,50530.0,2064.0,2269.0,0.0,-2.3509,0.5312,9.5845
2026-04-18T09:58:18.979Z,50549.0,2064.0,2269.0,0.0,-2.3509,0.5312,9.5845
2026-04-18T09:58:18.982Z,50569.0,2064.0,2275.0,0.0,-2.3509,0.5312,9.5845
2026-04-18T09:58:19.084Z,50590.0,2064.0,2275.0,0.0,-2.3509,0.5216,9.5916
2026-04-18T09:58:19.084Z,50610.0,2064.0,2287.0,0.0,-2.3509,0.5216,9.5916
2026-04-18T09:58:19.085Z,50630.0,2064.0,2287.0,0.0,-2.3486,0.5168,9.5845
2026-04-18T09:58:19.085Z,50650.0,2064.0,2309.0,0.0,-2.3557,0.5264,9.5833
2026-04-18T09:58:19.086Z,50670.0,2064.0,2309.0,0.0,-2.3557,0.5264,9.5833
2026-04-18T09:58:19.148Z,50690.0,2064.0,2337.0,0.0,-2.3402,0.5204,9.594
2026-04-18T09:58:19.148Z,50710.0,2064.0,2337.0,0.0,-2.3402,0.5204,9.594
2026-04-18T09:58:19.149Z,50730.0,2064.0,2347.0,0.0,-2.3402,0.5121,9.5892
2026-04-18T09:58:19.150Z,50750.0,2064.0,2347.0,0.0,-2.3402,0.5121,9.5892
2026-04-18T09:58:19.211Z,50770.0,2064.0,2348.0,0.0,-2.3533,0.5252,9.5845
2026-04-18T09:58:19.211Z,50790.0,2064.0,2348.0,0.0,-2.3509,0.5312,9.5892
2026-04-18T09:58:19.211Z,50810.0,2064.0,2344.0,0.0,-2.3509,0.5312,9.5892
2026-04-18T09:58:19.255Z,50830.0,2064.0,2344.0,0.0,-2.3486,0.5264,9.5892
2026-04-18T09:58:19.260Z,50850.0,2064.0,2337.0,0.0,-2.3486,0.5264,9.5892
2026-04-18T09:58:19.260Z,50870.0,2064.0,2337.0,0.0,-2.3557,0.5192,9.5809
2026-04-18T09:58:19.343Z,50890.0,2064.0,2341.0,0.0,-2.3426,0.5109,9.5892
2026-04-18T09:58:19.343Z,50910.0,2064.0,2341.0,0.0,-2.3426,0.5109,9.5892
2026-04-18T09:58:19.343Z,50930.0,2064.0,2342.0,0.0,-2.3402,0.5168,9.5856
2026-04-18T09:58:19.420Z,50951.0,2064.0,2342.0,0.0,-2.3402,0.5168,9.5856
2026-04-18T09:58:19.441Z,50970.0,2064.0,2336.0,0.0,-2.3509,0.5228,9.588
2026-04-18T09:58:19.470Z,50990.0,2064.0,2336.0,0.0,-2.3509,0.5228,9.588
2026-04-18T09:58:19.471Z,51010.0,2064.0,2316.0,0.0,-2.3569,0.5264,9.5833
2026-04-18T09:58:19.473Z,51030.0,2064.0,2316.0,0.0,-2.3438,0.524,9.588
2026-04-18T09:58:19.474Z,51051.0,2064.0,2290.0,0.0,-2.3438,0.524,9.588
2026-04-18T09:58:19.497Z,51070.0,2064.0,2290.0,0.0,-2.3474,0.5204,9.5845
2026-04-18T09:58:19.497Z,51091.0,2064.0,2265.0,0.0,-2.3474,0.5204,9.5845
2026-04-18T09:58:19.498Z,51111.0,2064.0,2265.0,0.0,-2.3581,0.53,9.5797
2026-04-18T09:58:19.560Z,51131.0,2064.0,2245.0,0.0,-2.3521,0.5288,9.5856
2026-04-18T09:58:19.560Z,51151.0,2064.0,2245.0,0.0,-2.3521,0.5288,9.5856
2026-04-18T09:58:19.561Z,51171.0,2064.0,2232.0,0.0,-2.3462,0.5157,9.5916
2026-04-18T09:58:19.622Z,51192.0,2064.0,2232.0,0.0,-2.3462,0.5157,9.5916
2026-04-18T09:58:19.622Z,51211.0,2064.0,2223.0,0.0,-2.345,0.5121,9.5845
2026-04-18T09:58:19.623Z,51232.0,2064.0,2223.0,0.0,-2.345,0.5121,9.5845
2026-04-18T09:58:19.687Z,51252.0,2064.0,2220.0,0.0,-2.3521,0.5276,9.588
2026-04-18T09:58:19.689Z,51269.0,2064.0,2220.0,0.0,-2.3533,0.5252,9.5868
2026-04-18T09:58:19.690Z,51289.0,2064.0,2217.0,0.0,-2.3533,0.5252,9.5868
2026-04-18T09:58:19.795Z,51309.0,2064.0,2217.0,0.0,-2.3533,0.5252,9.5868
2026-04-18T09:58:19.795Z,51329.0,2064.0,2214.0,0.0,-2.3533,0.5252,9.5868
2026-04-18T09:58:19.796Z,51349.0,2064.0,2214.0,0.0,-2.3533,0.5252,9.5868
2026-04-18T09:58:19.797Z,51369.0,2064.0,2223.0,0.0,-2.3533,0.5252,9.5868
2026-04-18T09:58:19.797Z,51389.0,2064.0,2223.0,0.0,-2.3533,0.5252,9.5868
2026-04-18T09:58:19.859Z,51409.0,2064.0,2244.0,0.0,-2.3533,0.5252,9.5868
2026-04-18T09:58:19.859Z,51429.0,2064.0,2244.0,0.0,-2.3533,0.5252,9.5868
2026-04-18T09:58:19.860Z,51449.0,2064.0,2265.0,0.0,-2.3533,0.5252,9.5868
2026-04-18T09:58:19.860Z,51469.0,2064.0,2265.0,0.0,-2.3533,0.5252,9.5868
2026-04-18T09:58:19.923Z,51489.0,2064.0,2278.0,0.0,-2.3533,0.5252,9.5868
2026-04-18T09:58:19.923Z,51512.0,2064.0,2278.0,0.0,-2.3533,0.5252,9.5868
2026-04-18T09:58:20.005Z,51532.0,2064.0,2279.0,0.0,-2.3533,0.5252,9.5868
2026-04-18T09:58:20.006Z,51552.0,2064.0,2279.0,0.0,-2.3653,0.5348,9.588
2026-04-18T09:58:20.006Z,51572.0,2067.0,2285.0,0.0,-2.3653,0.5348,9.588
2026-04-18T09:58:20.007Z,51592.0,2067.0,2285.0,0.0,-2.3557,0.5264,9.5856
2026-04-18T09:58:20.112Z,51612.0,2067.0,2296.0,0.0,-2.3557,0.5264,9.5856
2026-04-18T09:58:20.114Z,51632.0,2067.0,2296.0,0.0,-2.3318,0.5109,9.588
2026-04-18T09:58:20.114Z,51652.0,2067.0,2303.0,0.0,-2.3462,0.5157,9.5868
2026-04-18T09:58:20.114Z,51672.0,2067.0,2303.0,0.0,-2.3462,0.5157,9.5868
2026-04-18T09:58:20.115Z,51692.0,2067.0,2303.0,0.0,-2.3581,0.53,9.5809
2026-04-18T09:58:20.158Z,51712.0,2067.0,2303.0,0.0,-2.3581,0.53,9.5809
2026-04-18T09:58:20.160Z,51732.0,2067.0,2293.0,0.0,-2.3509,0.5324,9.5868
2026-04-18T09:58:20.160Z,51752.0,2067.0,2293.0,0.0,-2.3414,0.5157,9.5916
2026-04-18T09:58:20.161Z,51772.0,2067.0,2275.0,0.0,-2.3414,0.5157,9.5916
2026-04-18T09:58:20.222Z,51792.0,2067.0,2275.0,0.0,-2.3498,0.5168,9.5892
2026-04-18T09:58:20.223Z,51812.0,2067.0,2250.0,0.0,-2.3498,0.5168,9.5892
2026-04-18T09:58:20.223Z,51832.0,2067.0,2250.0,0.0,-2.3509,0.5252,9.5856
2026-04-18T09:58:20.285Z,51852.0,2067.0,2206.0,0.0,-2.3509,0.5252,9.5856
2026-04-18T09:58:20.288Z,51872.0,2067.0,2206.0,0.0,-2.3509,0.5276,9.5833
2026-04-18T09:58:20.294Z,51889.0,2067.0,2170.0,0.0,-2.3557,0.524,9.5845
2026-04-18T09:58:20.335Z,51909.0,2067.0,2170.0,0.0,-2.3557,0.524,9.5845
2026-04-18T09:58:20.335Z,51929.0,2067.0,2147.0,0.0,-2.3486,0.5228,9.588
2026-04-18T09:58:20.335Z,51949.0,2067.0,2147.0,0.0,-2.3486,0.5228,9.588
2026-04-18T09:58:20.422Z,51969.0,2067.0,2137.0,0.0,-2.3402,0.524,9.5845
2026-04-18T09:58:20.422Z,51989.0,2067.0,2137.0,0.0,-2.3557,0.5276,9.5809
2026-04-18T09:58:20.423Z,52009.0,2067.0,2136.0,0.0,-2.3557,0.5276,9.5809
2026-04-18T09:58:20.465Z,52029.0,2067.0,2136.0,0.0,-2.3569,0.5192,9.5892
2026-04-18T09:58:20.465Z,52049.0,2067.0,2130.0,0.0,-2.3569,0.5192,9.5892
2026-04-18T09:58:20.465Z,52069.0,2067.0,2130.0,0.0,-2.345,0.5192,9.588
2026-04-18T09:58:20.528Z,52089.0,2067.0,2138.0,0.0,-2.345,0.5192,9.588
2026-04-18T09:58:20.590Z,52109.0,2067.0,2138.0,0.0,-2.3521,0.5252,9.5809
2026-04-18T09:58:20.590Z,52129.0,2063.0,2149.0,0.0,-2.3605,0.53,9.5809
2026-04-18T09:58:20.590Z,52149.0,2063.0,2149.0,0.0,-2.3605,0.53,9.5809
2026-04-18T09:58:20.592Z,52170.0,2063.0,2167.0,0.0,-2.345,0.5216,9.5916
2026-04-18T09:58:20.592Z,52189.0,2063.0,2167.0,0.0,-2.345,0.5216,9.5916
2026-04-18T09:58:20.633Z,52209.0,2063.0,2189.0,0.0,-2.3426,0.5145,9.5916
2026-04-18T09:58:20.634Z,52229.0,2063.0,2189.0,0.0,-2.3569,0.5288,9.5845
2026-04-18T09:58:20.634Z,52249.0,2063.0,2226.0,0.0,-2.3569,0.5288,9.5845
2026-04-18T09:58:20.697Z,52269.0,2063.0,2226.0,0.0,-2.3593,0.536,9.5856
2026-04-18T09:58:20.697Z,52289.0,2063.0,2256.0,0.0,-2.3593,0.536,9.5856
2026-04-18T09:58:20.701Z,52309.0,2063.0,2256.0,0.0,-2.3593,0.536,9.5856
2026-04-18T09:58:20.827Z,52329.0,2063.0,2282.0,0.0,-2.3593,0.536,9.5856
2026-04-18T09:58:20.836Z,52349.0,2063.0,2282.0,0.0,-2.3593,0.536,9.5856
2026-04-18T09:58:20.838Z,52369.0,2063.0,2300.0,0.0,-2.3593,0.536,9.5856
2026-04-18T09:58:20.840Z,52389.0,2063.0,2300.0,0.0,-2.3593,0.536,9.5856
2026-04-18T09:58:20.841Z,52409.0,2063.0,2306.0,0.0,-2.3593,0.536,9.5856
2026-04-18T09:58:20.884Z,52429.0,2063.0,2306.0,0.0,-2.3593,0.536,9.5856
2026-04-18T09:58:20.884Z,52449.0,2063.0,2303.0,0.0,-2.3593,0.536,9.5856
2026-04-18T09:58:20.885Z,52469.0,2063.0,2303.0,0.0,-2.3593,0.536,9.5856
2026-04-18T09:58:20.885Z,52489.0,2063.0,2304.0,0.0,-2.3593,0.536,9.5856
2026-04-18T09:58:20.947Z,52509.0,2063.0,2304.0,0.0,-2.3593,0.536,9.5856
2026-04-18T09:58:20.947Z,52529.0,2063.0,2305.0,0.0,-2.3414,0.5145,9.5845
2026-04-18T09:58:20.947Z,52549.0,2063.0,2305.0,0.0,-2.3557,0.5264,9.5845
2026-04-18T09:58:21.010Z,52569.0,2063.0,2302.0,0.0,-2.3557,0.5264,9.5845
2026-04-18T09:58:21.010Z,52589.0,2063.0,2302.0,0.0,-2.3569,0.5264,9.5868
2026-04-18T09:58:21.010Z,52609.0,2063.0,2292.0,0.0,-2.345,0.5157,9.588
2026-04-18T09:58:21.073Z,52629.0,2063.0,2292.0,0.0,-2.345,0.5157,9.588
2026-04-18T09:58:21.073Z,52649.0,2063.0,2281.0,0.0,-2.3474,0.5192,9.5868
2026-04-18T09:58:21.074Z,52669.0,2063.0,2281.0,0.0,-2.3474,0.5192,9.5868
2026-04-18T09:58:21.116Z,52689.0,2063.0,2268.0,0.0,-2.3521,0.5276,9.5868
2026-04-18T09:58:21.116Z,52709.0,2063.0,2268.0,0.0,-2.3486,0.5216,9.5856
2026-04-18T09:58:21.117Z,52729.0,2063.0,2253.0,0.0,-2.3486,0.5216,9.5856
2026-04-18T09:58:21.179Z,52749.0,2063.0,2253.0,0.0,-2.3474,0.5121,9.5892
2026-04-18T09:58:21.179Z,52769.0,2063.0,2238.0,0.0,-2.3474,0.5121,9.5892
2026-04-18T09:58:21.180Z,52789.0,2063.0,2238.0,0.0,-2.3474,0.5216,9.5821
2026-04-18T09:58:21.242Z,52809.0,2063.0,2231.0,0.0,-2.3486,0.5264,9.5868
2026-04-18T09:58:21.242Z,52829.0,2063.0,2231.0,0.0,-2.3486,0.5264,9.5868
2026-04-18T09:58:21.243Z,52849.0,2063.0,2228.0,0.0,-2.3545,0.5192,9.5845
2026-04-18T09:58:21.305Z,52869.0,2063.0,2228.0,0.0,-2.3545,0.5192,9.5845
2026-04-18T09:58:21.306Z,52889.0,2063.0,2226.0,0.0,-2.3557,0.5252,9.5797
2026-04-18T09:58:21.307Z,52909.0,2063.0,2226.0,0.0,-2.3498,0.5288,9.5845
2026-04-18T09:58:21.369Z,52929.0,2063.0,2226.0,0.0,-2.3498,0.5288,9.5845
2026-04-18T09:58:21.369Z,52949.0,2063.0,2226.0,0.0,-2.3498,0.5288,9.5845
2026-04-18T09:58:21.370Z,52969.0,2063.0,2239.0,0.0,-2.3498,0.5204,9.5856
2026-04-18T09:58:21.431Z,52990.0,2063.0,2239.0,0.0,-2.3498,0.5204,9.5856
2026-04-18T09:58:21.432Z,53010.0,2063.0,2260.0,0.0,-2.3521,0.5192,9.5845
2026-04-18T09:58:21.432Z,53030.0,2063.0,2260.0,0.0,-2.3438,0.5204,9.5809
2026-04-18T09:58:21.538Z,53050.0,2066.0,2274.0,0.0,-2.3438,0.5204,9.5809
2026-04-18T09:58:21.538Z,53070.0,2066.0,2274.0,0.0,-2.3509,0.5228,9.5868
2026-04-18T09:58:21.538Z,53092.0,2066.0,2292.0,0.0,-2.3509,0.5228,9.5868
2026-04-18T09:58:21.538Z,53111.0,2066.0,2292.0,0.0,-2.3557,0.5264,9.5845
2026-04-18T09:58:21.538Z,53131.0,2066.0,2304.0,0.0,-2.3557,0.5264,9.5845
2026-04-18T09:58:21.601Z,53151.0,2066.0,2304.0,0.0,-2.3462,0.5192,9.5868
2026-04-18T09:58:21.601Z,53171.0,2066.0,2313.0,0.0,-2.3462,0.5216,9.5868
2026-04-18T09:58:21.602Z,53192.0,2066.0,2313.0,0.0,-2.3462,0.5216,9.5868
2026-04-18T09:58:21.602Z,53212.0,2066.0,2335.0,0.0,-2.3486,0.524,9.5868
2026-04-18T09:58:21.665Z,53232.0,2066.0,2335.0,0.0,-2.3486,0.524,9.5868
2026-04-18T09:58:21.665Z,53252.0,2066.0,2345.0,0.0,-2.3521,0.524,9.5845
2026-04-18T09:58:21.666Z,53269.0,2066.0,2345.0,0.0,-2.3474,0.5216,9.5856
2026-04-18T09:58:21.728Z,53289.0,2066.0,2347.0,0.0,-2.3474,0.5216,9.5856
2026-04-18T09:58:21.831Z,53309.0,2066.0,2347.0,0.0,-2.3474,0.5216,9.5856
2026-04-18T09:58:21.852Z,53329.0,2066.0,2353.0,0.0,-2.3474,0.5216,9.5856
2026-04-18T09:58:21.852Z,53349.0,2066.0,2353.0,0.0,-2.3474,0.5216,9.5856
2026-04-18T09:58:21.853Z,53369.0,2066.0,2344.0,0.0,-2.3474,0.5216,9.5856
2026-04-18T09:58:21.853Z,53389.0,2066.0,2344.0,0.0,-2.3474,0.5216,9.5856
2026-04-18T09:58:21.854Z,53409.0,2066.0,2330.0,0.0,-2.3474,0.5216,9.5856
2026-04-18T09:58:21.854Z,53429.0,2066.0,2330.0,0.0,-2.3474,0.5216,9.5856
2026-04-18T09:58:21.896Z,53449.0,2066.0,2313.0,0.0,-2.3474,0.5216,9.5856
2026-04-18T09:58:21.896Z,53469.0,2066.0,2313.0,0.0,-2.3474,0.5216,9.5856
2026-04-18T09:58:21.896Z,53489.0,2066.0,2299.0,0.0,-2.3474,0.5216,9.5856
2026-04-18T09:58:21.896Z,53511.0,2066.0,2299.0,0.0,-2.3474,0.5216,9.5856
2026-04-18T09:58:21.959Z,53531.0,2066.0,2293.0,0.0,-2.3438,0.5133,9.5892
2026-04-18T09:58:21.960Z,53552.0,2066.0,2293.0,0.0,-2.3498,0.524,9.588
2026-04-18T09:58:21.960Z,53572.0,2066.0,2285.0,0.0,-2.3498,0.524,9.588
2026-04-18T09:58:22.023Z,53592.0,2066.0,2285.0,0.0,-2.3557,0.5324,9.5868
2026-04-18T09:58:22.023Z,53612.0,2066.0,2266.0,0.0,-2.3557,0.5324,9.5868
2026-04-18T09:58:22.023Z,53632.0,2066.0,2266.0,0.0,-2.3462,0.518,9.588
2026-04-18T09:58:22.084Z,53653.0,2066.0,2245.0,0.0,-2.3474,0.5133,9.5892
2026-04-18T09:58:22.084Z,53669.0,2066.0,2245.0,0.0,-2.3474,0.5133,9.5892
2026-04-18T09:58:22.085Z,53689.0,2066.0,2235.0,0.0,-2.3545,0.5348,9.5845
2026-04-18T09:58:22.147Z,53709.0,2066.0,2235.0,0.0,-2.3545,0.5348,9.5845
2026-04-18T09:58:22.147Z,53729.0,2066.0,2219.0,0.0,-2.3545,0.5396,9.5868
2026-04-18T09:58:22.148Z,53750.0,2066.0,2219.0,0.0,-2.3545,0.5396,9.5868
2026-04-18T09:58:22.210Z,53769.0,2066.0,2213.0,0.0,-2.3426,0.5157,9.5856
2026-04-18T09:58:22.210Z,53789.0,2066.0,2213.0,0.0,-2.3545,0.5204,9.5797
2026-04-18T09:58:22.211Z,53809.0,2066.0,2228.0,0.0,-2.3545,0.5204,9.5797
2026-04-18T09:58:22.253Z,53829.0,2066.0,2228.0,0.0,-2.3557,0.5372,9.5797
2026-04-18T09:58:22.253Z,53849.0,2066.0,2265.0,0.0,-2.3557,0.5372,9.5797
2026-04-18T09:58:22.254Z,53869.0,2062.0,2265.0,0.0,-2.3414,0.5204,9.588
2026-04-18T09:58:22.316Z,53889.0,2062.0,2291.0,0.0,-2.3342,0.5037,9.5916
2026-04-18T09:58:22.316Z,53909.0,2062.0,2291.0,0.0,-2.3342,0.5037,9.5916
2026-04-18T09:58:22.317Z,53929.0,2062.0,2310.0,0.0,-2.3486,0.5168,9.5856
2026-04-18T09:58:22.379Z,53949.0,2062.0,2310.0,0.0,-2.3486,0.5168,9.5856
2026-04-18T09:58:22.379Z,53969.0,2062.0,2317.0,0.0,-2.3557,0.5384,9.5856
2026-04-18T09:58:22.381Z,53989.0,2062.0,2317.0,0.0,-2.3486,0.5288,9.5856
2026-04-18T09:58:22.443Z,54009.0,2062.0,2324.0,0.0,-2.3486,0.5288,9.5856
2026-04-18T09:58:22.452Z,54029.0,2062.0,2324.0,0.0,-2.3509,0.5145,9.588
2026-04-18T09:58:22.453Z,54049.0,2062.0,2331.0,0.0,-2.3509,0.5145,9.588
2026-04-18T09:58:22.556Z,54069.0,2062.0,2331.0,0.0,-2.345,0.5168,9.5928
2026-04-18T09:58:22.556Z,54089.0,2062.0,2344.0,0.0,-2.3414,0.5276,9.5856
2026-04-18T09:58:22.556Z,54109.0,2062.0,2344.0,0.0,-2.3414,0.5276,9.5856
2026-04-18T09:58:22.556Z,54129.0,2062.0,2343.0,0.0,-2.3545,0.5216,9.5868
2026-04-18T09:58:22.578Z,54149.0,2062.0,2343.0,0.0,-2.3545,0.5216,9.5868
2026-04-18T09:58:22.578Z,54169.0,2062.0,2333.0,0.0,-2.345,0.5168,9.5856
2026-04-18T09:58:22.619Z,54189.0,2062.0,2333.0,0.0,-2.345,0.5264,9.5904
2026-04-18T09:58:22.619Z,54209.0,2062.0,2319.0,0.0,-2.345,0.5264,9.5904
2026-04-18T09:58:22.619Z,54229.0,2062.0,2319.0,0.0,-2.3509,0.5228,9.588
2026-04-18T09:58:22.682Z,54249.0,2062.0,2303.0,0.0,-2.3509,0.5228,9.588
2026-04-18T09:58:22.682Z,54269.0,2062.0,2303.0,0.0,-2.3509,0.5228,9.588
2026-04-18T09:58:22.682Z,54289.0,2062.0,2289.0,0.0,-2.3509,0.5228,9.588
2026-04-18T09:58:22.744Z,54309.0,2062.0,2289.0,0.0,-2.3509,0.5228,9.588
2026-04-18T09:58:22.744Z,54329.0,2062.0,2276.0,0.0,-2.3509,0.5228,9.588
2026-04-18T09:58:22.744Z,54349.0,2062.0,2276.0,0.0,-2.3509,0.5228,9.588
2026-04-18T09:58:22.806Z,54369.0,2062.0,2266.0,0.0,-2.3509,0.5228,9.588
2026-04-18T09:58:22.806Z,54389.0,2062.0,2266.0,0.0,-2.3509,0.5228,9.588
2026-04-18T09:58:22.806Z,54409.0,2062.0,2253.0,0.0,-2.3509,0.5228,9.588
2026-04-18T09:58:22.869Z,54429.0,2062.0,2253.0,0.0,-2.3509,0.5228,9.588
2026-04-18T09:58:22.869Z,54449.0,2062.0,2241.0,0.0,-2.3509,0.5228,9.588
2026-04-18T09:58:22.870Z,54469.0,2062.0,2241.0,0.0,-2.3509,0.5228,9.588
2026-04-18T09:58:22.931Z,54489.0,2062.0,2230.0,0.0,-2.3509,0.5228,9.588
2026-04-18T09:58:22.932Z,54512.0,2062.0,2230.0,0.0,-2.3509,0.5228,9.588
2026-04-18T09:58:22.932Z,54533.0,2062.0,2231.0,0.0,-2.3569,0.5264,9.588
2026-04-18T09:58:22.974Z,54549.0,2062.0,2231.0,0.0,-2.3462,0.53,9.5845
2026-04-18T09:58:22.974Z,54569.0,2062.0,2242.0,0.0,-2.3462,0.53,9.5845
2026-04-18T09:58:22.975Z,54589.0,2062.0,2242.0,0.0,-2.3533,0.53,9.5809
2026-04-18T09:58:23.037Z,54609.0,2062.0,2271.0,0.0,-2.3533,0.53,9.5809
2026-04-18T09:58:23.038Z,54629.0,2062.0,2271.0,0.0,-2.3462,0.5133,9.5856
2026-04-18T09:58:23.038Z,54649.0,2062.0,2298.0,0.0,-2.3498,0.5192,9.5856
2026-04-18T09:58:23.100Z,54669.0,2062.0,2298.0,0.0,-2.3498,0.5192,9.5856
2026-04-18T09:58:23.100Z,54689.0,2062.0,2326.0,0.0,-2.345,0.5312,9.5856
2026-04-18T09:58:23.101Z,54709.0,2062.0,2326.0,0.0,-2.345,0.5312,9.5856
2026-04-18T09:58:23.164Z,54729.0,2062.0,2341.0,0.0,-2.3426,0.5145,9.5928
2026-04-18T09:58:23.164Z,54749.0,2062.0,2341.0,0.0,-2.3509,0.518,9.5809
2026-04-18T09:58:23.164Z,54769.0,2062.0,2349.0,0.0,-2.3509,0.518,9.5809
2026-04-18T09:58:23.290Z,54789.0,2062.0,2349.0,0.0,-2.3533,0.53,9.5868
2026-04-18T09:58:23.290Z,54809.0,2062.0,2354.0,0.0,-2.3533,0.53,9.5868
2026-04-18T09:58:23.290Z,54829.0,2062.0,2354.0,0.0,-2.3414,0.524,9.5904
2026-04-18T09:58:23.290Z,54849.0,2062.0,2360.0,0.0,-2.3486,0.5168,9.5821
2026-04-18T09:58:23.290Z,54869.0,2062.0,2360.0,0.0,-2.3486,0.5168,9.5821
2026-04-18T09:58:23.290Z,54889.0,2062.0,2366.0,0.0,-2.3545,0.5204,9.588
2026-04-18T09:58:23.332Z,54909.0,2062.0,2366.0,0.0,-2.3545,0.5204,9.588
2026-04-18T09:58:23.332Z,54929.0,2062.0,2360.0,0.0,-2.345,0.5276,9.5904
2026-04-18T09:58:23.334Z,54949.0,2062.0,2360.0,0.0,-2.3569,0.524,9.5845
2026-04-18T09:58:23.395Z,54969.0,2062.0,2348.0,0.0,-2.3569,0.524,9.5845
2026-04-18T09:58:23.396Z,54989.0,2062.0,2348.0,0.0,-2.3438,0.5145,9.5833
2026-04-18T09:58:23.396Z,55009.0,2062.0,2324.0,0.0,-2.3438,0.5145,9.5833
2026-04-18T09:58:23.458Z,55029.0,2062.0,2324.0,0.0,-2.339,0.5145,9.5892
2026-04-18T09:58:23.522Z,55049.0,2062.0,2285.0,0.0,-2.339,0.5145,9.5892
2026-04-18T09:58:23.584Z,55069.0,2065.0,2285.0,0.0,-2.3605,0.5324,9.5833
2026-04-18T09:58:23.584Z,55089.0,2065.0,2252.0,0.0,-2.3605,0.5324,9.5833
2026-04-18T09:58:23.586Z,55109.0,2065.0,2252.0,0.0,-2.3653,0.5348,9.5845
2026-04-18T09:58:23.586Z,55129.0,2065.0,2232.0,0.0,-2.3653,0.5348,9.5845
2026-04-18T09:58:23.586Z,55150.0,2065.0,2232.0,0.0,-2.3462,0.5168,9.5845
2026-04-18T09:58:23.586Z,55171.0,2065.0,2213.0,0.0,-2.345,0.5133,9.588
2026-04-18T09:58:23.586Z,55191.0,2065.0,2213.0,0.0,-2.345,0.5133,9.588
2026-04-18T09:58:23.649Z,55211.0,2065.0,2209.0,0.0,-2.3569,0.5252,9.5856
2026-04-18T09:58:23.713Z,55232.0,2065.0,2209.0,0.0,-2.3569,0.5252,9.5856
2026-04-18T09:58:23.714Z,55251.0,2065.0,2214.0,0.0,-2.3509,0.5264,9.5856
2026-04-18T09:58:23.714Z,55269.0,2065.0,2214.0,0.0,-2.3509,0.5264,9.5856
2026-04-18T09:58:23.715Z,55289.0,2065.0,2220.0,0.0,-2.3509,0.5264,9.5856
2026-04-18T09:58:23.715Z,55309.0,2065.0,2220.0,0.0,-2.3509,0.5264,9.5856
2026-04-18T09:58:23.756Z,55329.0,2065.0,2228.0,0.0,-2.3509,0.5264,9.5856
2026-04-18T09:58:23.757Z,55349.0,2065.0,2228.0,0.0,-2.3509,0.5264,9.5856
2026-04-18T09:58:23.760Z,55369.0,2065.0,2251.0,0.0,-2.3509,0.5264,9.5856
2026-04-18T09:58:23.826Z,55389.0,2065.0,2251.0,0.0,-2.3509,0.5264,9.5856
2026-04-18T09:58:23.827Z,55409.0,2065.0,2291.0,0.0,-2.3509,0.5264,9.5856
2026-04-18T09:58:23.827Z,55429.0,2065.0,2291.0,0.0,-2.3509,0.5264,9.5856
2026-04-18T09:58:23.901Z,55449.0,2065.0,2300.0,0.0,-2.3509,0.5264,9.5856
2026-04-18T09:58:23.901Z,55469.0,2065.0,2300.0,0.0,-2.3509,0.5264,9.5856
2026-04-18T09:58:23.902Z,55489.0,2065.0,2293.0,0.0,-2.3509,0.5264,9.5856
2026-04-18T09:58:23.943Z,55512.0,2065.0,2293.0,0.0,-2.3509,0.5264,9.5856
2026-04-18T09:58:23.943Z,55532.0,2065.0,2280.0,0.0,-2.3426,0.5216,9.5856
2026-04-18T09:58:23.944Z,55552.0,2065.0,2280.0,0.0,-2.3641,0.5288,9.5821
2026-04-18T09:58:24.007Z,55572.0,2065.0,2271.0,0.0,-2.3641,0.5288,9.5821
2026-04-18T09:58:24.012Z,55593.0,2065.0,2271.0,0.0,-2.3533,0.5228,9.5833
2026-04-18T09:58:24.016Z,55609.0,2065.0,2259.0,0.0,-2.3533,0.5228,9.5833
2026-04-18T09:58:24.061Z,55629.0,2065.0,2259.0,0.0,-2.3354,0.518,9.5833
2026-04-18T09:58:24.072Z,55653.0,2065.0,2252.0,0.0,-2.3474,0.5228,9.5833
2026-04-18T09:58:24.077Z,55669.0,2065.0,2252.0,0.0,-2.3474,0.5228,9.5833
2026-04-18T09:58:24.119Z,55689.0,2065.0,2250.0,0.0,-2.3569,0.5288,9.5809
2026-04-18T09:58:24.119Z,55709.0,2065.0,2250.0,0.0,-2.3569,0.5288,9.5809
2026-04-18T09:58:24.119Z,55729.0,2065.0,2246.0,0.0,-2.345,0.5288,9.5868
2026-04-18T09:58:24.182Z,55749.0,2065.0,2246.0,0.0,-2.345,0.5288,9.5868
2026-04-18T09:58:24.182Z,55769.0,2065.0,2242.0,0.0,-2.3414,0.5192,9.5916
2026-04-18T09:58:24.182Z,55789.0,2065.0,2242.0,0.0,-2.3533,0.5145,9.588
2026-04-18T09:58:24.309Z,55809.0,2065.0,2240.0,0.0,-2.3533,0.5145,9.588
2026-04-18T09:58:24.309Z,55829.0,2065.0,2240.0,0.0,-2.3498,0.5216,9.5845
2026-04-18T09:58:24.309Z,55849.0,2068.0,2233.0,0.0,-2.3498,0.5216,9.5845
2026-04-18T09:58:24.309Z,55869.0,2068.0,2233.0,0.0,-2.3521,0.536,9.5856
2026-04-18T09:58:24.311Z,55889.0,2068.0,2216.0,0.0,-2.3474,0.5192,9.5833
2026-04-18T09:58:24.372Z,55909.0,2068.0,2216.0,0.0,-2.3474,0.5192,9.5833
2026-04-18T09:58:24.372Z,55929.0,2068.0,2204.0,0.0,-2.3509,0.5145,9.5856
2026-04-18T09:58:24.372Z,55949.0,2065.0,2204.0,0.0,-2.3509,0.5145,9.5856
2026-04-18T09:58:24.372Z,55969.0,2065.0,2197.0,0.0,-2.3486,0.5228,9.5821
2026-04-18T09:58:24.417Z,55989.0,2065.0,2197.0,0.0,-2.3486,0.524,9.5845
2026-04-18T09:58:24.426Z,56009.0,2065.0,2194.0,0.0,-2.3486,0.524,9.5845
2026-04-18T09:58:24.427Z,56029.0,2065.0,2194.0,0.0,-2.3533,0.5228,9.588
2026-04-18T09:58:24.489Z,56049.0,2065.0,2196.0,0.0,-2.3533,0.5228,9.588
2026-04-18T09:58:24.492Z,56069.0,2065.0,2196.0,0.0,-2.3521,0.5252,9.5868
2026-04-18T09:58:24.495Z,56089.0,2065.0,2193.0,0.0,-2.3509,0.5336,9.5785
2026-04-18T09:58:24.542Z,56109.0,2065.0,2193.0,0.0,-2.3509,0.5336,9.5785
2026-04-18T09:58:24.544Z,56129.0,2065.0,2198.0,0.0,-2.3545,0.5216,9.5856
2026-04-18T09:58:24.545Z,56149.0,2065.0,2198.0,0.0,-2.3545,0.5216,9.5856
2026-04-18T09:58:24.606Z,56169.0,2065.0,2229.0,0.0,-2.3569,0.5228,9.5856
2026-04-18T09:58:24.607Z,56189.0,2065.0,2229.0,0.0,-2.3569,0.5228,9.5856
2026-04-18T09:58:24.607Z,56210.0,2065.0,2260.0,0.0,-2.3402,0.518,9.5904
2026-04-18T09:58:24.668Z,56229.0,2065.0,2260.0,0.0,-2.3402,0.518,9.5904
2026-04-18T09:58:24.671Z,56249.0,2065.0,2268.0,0.0,-2.339,0.5145,9.5892
2026-04-18T09:58:24.671Z,56269.0,2065.0,2268.0,0.0,-2.339,0.5145,9.5892
2026-04-18T09:58:24.736Z,56289.0,2065.0,2265.0,0.0,-2.339,0.5145,9.5892
2026-04-18T09:58:24.736Z,56309.0,2065.0,2265.0,0.0,-2.339,0.5145,9.5892
2026-04-18T09:58:24.736Z,56329.0,2065.0,2266.0,0.0,-2.339,0.5145,9.5892
2026-04-18T09:58:24.781Z,56349.0,2065.0,2266.0,0.0,-2.339,0.5145,9.5892
2026-04-18T09:58:24.782Z,56369.0,2065.0,2274.0,0.0,-2.339,0.5145,9.5892
2026-04-18T09:58:24.782Z,56389.0,2065.0,2274.0,0.0,-2.339,0.5145,9.5892
2026-04-18T09:58:24.843Z,56409.0,2065.0,2279.0,0.0,-2.339,0.5145,9.5892
2026-04-18T09:58:24.845Z,56429.0,2065.0,2279.0,0.0,-2.339,0.5145,9.5892
2026-04-18T09:58:24.846Z,56449.0,2065.0,2281.0,0.0,-2.339,0.5145,9.5892
2026-04-18T09:58:24.909Z,56470.0,2065.0,2281.0,0.0,-2.339,0.5145,9.5892
2026-04-18T09:58:24.909Z,56489.0,2065.0,2274.0,0.0,-2.339,0.5145,9.5892
2026-04-18T09:58:24.911Z,56512.0,2065.0,2274.0,0.0,-2.339,0.5145,9.5892
2026-04-18T09:58:25.017Z,56529.0,2065.0,2268.0,0.0,-2.3521,0.5204,9.5868
2026-04-18T09:58:25.017Z,56549.0,2065.0,2268.0,0.0,-2.3462,0.5168,9.5833
2026-04-18T09:58:25.017Z,56569.0,2065.0,2263.0,0.0,-2.3462,0.5168,9.5833
2026-04-18T09:58:25.017Z,56589.0,2065.0,2263.0,0.0,-2.3474,0.5216,9.5892
2026-04-18T09:58:25.017Z,56609.0,2065.0,2257.0,0.0,-2.3474,0.5216,9.5892
2026-04-18T09:58:25.017Z,56629.0,2065.0,2257.0,0.0,-2.3521,0.5312,9.5833
2026-04-18T09:58:25.081Z,56649.0,2065.0,2241.0,0.0,-2.3521,0.5312,9.5833
2026-04-18T09:58:25.081Z,56669.0,2065.0,2241.0,0.0,-2.3474,0.5276,9.5892
2026-04-18T09:58:25.082Z,56689.0,2065.0,2231.0,0.0,-2.3474,0.5192,9.5868
2026-04-18T09:58:25.147Z,56709.0,2065.0,2231.0,0.0,-2.3474,0.5192,9.5868
2026-04-18T09:58:25.147Z,56729.0,2065.0,2222.0,0.0,-2.3509,0.5264,9.5821
2026-04-18T09:58:25.148Z,56749.0,2065.0,2222.0,0.0,-2.3509,0.5264,9.5821
2026-04-18T09:58:25.229Z,56769.0,2065.0,2215.0,0.0,-2.3533,0.5252,9.5833
2026-04-18T09:58:25.229Z,56789.0,2065.0,2215.0,0.0,-2.3509,0.5228,9.5833
2026-04-18T09:58:25.230Z,56809.0,2065.0,2203.0,0.0,-2.3509,0.5228,9.5833
2026-04-18T09:58:25.275Z,56829.0,2065.0,2203.0,0.0,-2.3462,0.518,9.5821
2026-04-18T09:58:25.281Z,56849.0,2065.0,2198.0,0.0,-2.3462,0.518,9.5821
2026-04-18T09:58:25.327Z,56869.0,2065.0,2198.0,0.0,-2.3521,0.5288,9.5845
2026-04-18T09:58:25.339Z,56889.0,2065.0,2194.0,0.0,-2.3569,0.5324,9.588
2026-04-18T09:58:25.344Z,56909.0,2065.0,2194.0,0.0,-2.3569,0.5324,9.588
2026-04-18T09:58:25.353Z,56929.0,2065.0,2203.0,0.0,-2.3533,0.5228,9.5833
2026-04-18T09:58:25.380Z,56949.0,2065.0,2203.0,0.0,-2.3533,0.5228,9.5833
2026-04-18T09:58:25.382Z,56969.0,2065.0,2222.0,0.0,-2.3509,0.5157,9.5785
2026-04-18T09:58:25.382Z,56989.0,2065.0,2222.0,0.0,-2.3462,0.5252,9.5833
2026-04-18T09:58:25.446Z,57009.0,2065.0,2252.0,0.0,-2.3462,0.5252,9.5833
2026-04-18T09:58:25.446Z,57029.0,2065.0,2252.0,0.0,-2.3402,0.5252,9.588
2026-04-18T09:58:25.447Z,57049.0,2065.0,2278.0,0.0,-2.3402,0.5252,9.588
2026-04-18T09:58:25.509Z,57069.0,2065.0,2278.0,0.0,-2.3486,0.5228,9.5845
2026-04-18T09:58:25.509Z,57089.0,2065.0,2290.0,0.0,-2.3426,0.5168,9.5856
2026-04-18T09:58:25.509Z,57109.0,2065.0,2290.0,0.0,-2.3426,0.5168,9.5856
2026-04-18T09:58:25.572Z,57129.0,2065.0,2296.0,0.0,-2.3426,0.524,9.5868
2026-04-18T09:58:25.633Z,57149.0,2065.0,2296.0,0.0,-2.3426,0.524,9.5868
2026-04-18T09:58:25.743Z,57169.0,2065.0,2300.0,0.0,-2.3426,0.524,9.5868
2026-04-18T09:58:25.743Z,57189.0,2065.0,2300.0,0.0,-2.3521,0.524,9.5856
2026-04-18T09:58:25.743Z,57209.0,2065.0,2297.0,0.0,-2.3557,0.518,9.588
2026-04-18T09:58:25.743Z,57229.0,2065.0,2297.0,0.0,-2.3557,0.518,9.588
2026-04-18T09:58:25.743Z,57249.0,2065.0,2297.0,0.0,-2.3414,0.5157,9.588
2026-04-18T09:58:25.806Z,57269.0,2065.0,2297.0,0.0,-2.3414,0.5157,9.588
2026-04-18T09:58:25.807Z,57289.0,2065.0,2286.0,0.0,-2.3414,0.5157,9.588
2026-04-18T09:58:25.807Z,57309.0,2065.0,2286.0,0.0,-2.3414,0.5157,9.588
2026-04-18T09:58:25.808Z,57329.0,2065.0,2267.0,0.0,-2.3414,0.5157,9.588
2026-04-18T09:58:25.808Z,57349.0,2065.0,2267.0,0.0,-2.3414,0.5157,9.588
2026-04-18T09:58:25.871Z,57369.0,2065.0,2247.0,0.0,-2.3414,0.5157,9.588
2026-04-18T09:58:25.871Z,57389.0,2065.0,2247.0,0.0,-2.3414,0.5157,9.588
2026-04-18T09:58:25.873Z,57409.0,2065.0,2233.0,0.0,-2.3414,0.5157,9.588
2026-04-18T09:58:25.873Z,57429.0,2065.0,2233.0,0.0,-2.3414,0.5157,9.588
2026-04-18T09:58:25.873Z,57449.0,2065.0,2224.0,0.0,-2.3414,0.5157,9.588
2026-04-18T09:58:25.935Z,57469.0,2065.0,2224.0,0.0,-2.3414,0.5157,9.588
2026-04-18T09:58:25.935Z,57489.0,2065.0,2220.0,0.0,-2.3414,0.5157,9.588
2026-04-18T09:58:25.936Z,57512.0,2065.0,2220.0,0.0,-2.3414,0.5157,9.588
2026-04-18T09:58:25.936Z,57532.0,2065.0,2226.0,0.0,-2.3426,0.5168,9.588
2026-04-18T09:58:26.048Z,57552.0,2065.0,2226.0,0.0,-2.3474,0.53,9.5856
2026-04-18T09:58:26.054Z,57572.0,2065.0,2228.0,0.0,-2.3474,0.53,9.5856
2026-04-18T09:58:26.063Z,57592.0,2065.0,2228.0,0.0,-2.3474,0.5276,9.5809
2026-04-18T09:58:26.075Z,57612.0,2065.0,2229.0,0.0,-2.3474,0.5276,9.5809
2026-04-18T09:58:26.082Z,57632.0,2065.0,2229.0,0.0,-2.3533,0.5288,9.5797
2026-04-18T09:58:26.126Z,57652.0,2065.0,2227.0,0.0,-2.3533,0.5288,9.5797
2026-04-18T09:58:26.128Z,57672.0,2065.0,2227.0,0.0,-2.3545,0.5216,9.5785
2026-04-18T09:58:26.128Z,57692.0,2065.0,2243.0,0.0,-2.3402,0.5252,9.588
2026-04-18T09:58:26.128Z,57712.0,2065.0,2243.0,0.0,-2.3402,0.5252,9.588
2026-04-18T09:58:26.171Z,57732.0,2065.0,2258.0,0.0,-2.3521,0.5216,9.5845
2026-04-18T09:58:26.182Z,57749.0,2065.0,2258.0,0.0,-2.3521,0.5216,9.5845
2026-04-18T09:58:26.207Z,57769.0,2065.0,2263.0,0.0,-2.3557,0.5216,9.5868
2026-04-18T09:58:26.231Z,57789.0,2065.0,2263.0,0.0,-2.3462,0.5228,9.5821
2026-04-18T09:58:26.231Z,57809.0,2065.0,2283.0,0.0,-2.3462,0.5228,9.5821
2026-04-18T09:58:26.232Z,57829.0,2065.0,2283.0,0.0,-2.3462,0.5264,9.5845
2026-04-18T09:58:26.274Z,57849.0,2065.0,2304.0,0.0,-2.3462,0.5264,9.5845
2026-04-18T09:58:26.274Z,57869.0,2065.0,2304.0,0.0,-2.345,0.5192,9.5964
2026-04-18T09:58:26.274Z,57889.0,2065.0,2311.0,0.0,-2.345,0.5192,9.5964
2026-04-18T09:58:26.336Z,57909.0,2065.0,2311.0,0.0,-2.339,0.5192,9.588
2026-04-18T09:58:26.336Z,57929.0,2065.0,2311.0,0.0,-2.3713,0.5324,9.5773
2026-04-18T09:58:26.336Z,57949.0,2065.0,2317.0,0.0,-2.3713,0.5324,9.5773
2026-04-18T09:58:26.398Z,57969.0,2065.0,2332.0,0.0,-2.3486,0.5252,9.5928
2026-04-18T09:58:26.460Z,57989.0,2065.0,2332.0,0.0,-2.3378,0.5097,9.5916
2026-04-18T09:58:26.460Z,58009.0,2065.0,2332.0,0.0,-2.3378,0.5097,9.5916
2026-04-18T09:58:26.461Z,58029.0,2065.0,2336.0,0.0,-2.3426,0.5204,9.5797
2026-04-18T09:58:26.461Z,58049.0,2065.0,2344.0,0.0,-2.3426,0.5204,9.5797
2026-04-18T09:58:26.461Z,58069.0,2065.0,2344.0,0.0,-2.3617,0.5348,9.5833
2026-04-18T09:58:26.527Z,58089.0,2065.0,2336.0,0.0,-2.3569,0.5216,9.588
2026-04-18T09:58:26.527Z,58109.0,2065.0,2336.0,0.0,-2.3569,0.5216,9.588
2026-04-18T09:58:26.528Z,58129.0,2065.0,2329.0,0.0,-2.3366,0.5168,9.588
2026-04-18T09:58:26.578Z,58149.0,2065.0,2329.0,0.0,-2.3366,0.5168,9.588
2026-04-18T09:58:26.581Z,58169.0,2065.0,2329.0,0.0,-2.3366,0.5168,9.588
2026-04-18T09:58:26.581Z,58189.0,2065.0,2317.0,0.0,-2.3725,0.5312,9.5809
2026-04-18T09:58:26.643Z,58210.0,2065.0,2313.0,0.0,-2.3725,0.5312,9.5809
2026-04-18T09:58:26.644Z,58230.0,2065.0,2313.0,0.0,-2.3725,0.5312,9.5809
2026-04-18T09:58:26.644Z,58250.0,2065.0,2302.0,0.0,-2.3486,0.524,9.5809
2026-04-18T09:58:26.768Z,58269.0,2065.0,2302.0,0.0,-2.3486,0.524,9.5809
2026-04-18T09:58:26.768Z,58289.0,2065.0,2294.0,0.0,-2.3486,0.524,9.5809
2026-04-18T09:58:26.768Z,58309.0,2065.0,2294.0,0.0,-2.3486,0.524,9.5809
2026-04-18T09:58:26.768Z,58329.0,2065.0,2294.0,0.0,-2.3486,0.524,9.5809
2026-04-18T09:58:26.768Z,58349.0,2065.0,2293.0,0.0,-2.3486,0.524,9.5809
2026-04-18T09:58:26.811Z,58369.0,2065.0,2293.0,0.0,-2.3486,0.524,9.5809
2026-04-18T09:58:26.832Z,58389.0,2065.0,2284.0,0.0,-2.3486,0.524,9.5809
2026-04-18T09:58:26.832Z,58409.0,2065.0,2273.0,0.0,-2.3486,0.524,9.5809
2026-04-18T09:58:26.833Z,58429.0,2065.0,2273.0,0.0,-2.3486,0.524,9.5809
2026-04-18T09:58:26.875Z,58449.0,2065.0,2273.0,0.0,-2.3486,0.524,9.5809
2026-04-18T09:58:26.876Z,58469.0,2065.0,2261.0,0.0,-2.3486,0.524,9.5809
2026-04-18T09:58:26.877Z,58489.0,2065.0,2250.0,0.0,-2.3486,0.524,9.5809
2026-04-18T09:58:26.939Z,58509.0,2065.0,2250.0,0.0,-2.3486,0.524,9.5809
2026-04-18T09:58:26.939Z,58529.0,2065.0,2250.0,0.0,-2.3521,0.5013,9.5833
2026-04-18T09:58:26.940Z,58549.0,2065.0,2255.0,0.0,-2.339,0.518,9.5904
2026-04-18T09:58:27.004Z,58569.0,2065.0,2255.0,0.0,-2.339,0.518,9.5904
2026-04-18T09:58:27.010Z,58589.0,2065.0,2267.0,0.0,-2.3545,0.5456,9.5833
2026-04-18T09:58:27.010Z,58609.0,2065.0,2287.0,0.0,-2.3545,0.5456,9.5833
2026-04-18T09:58:27.072Z,58629.0,2065.0,2287.0,0.0,-2.3641,0.5228,9.5833
2026-04-18T09:58:27.073Z,58649.0,2065.0,2302.0,0.0,-2.3641,0.5228,9.5833
2026-04-18T09:58:27.073Z,58669.0,2062.0,2302.0,0.0,-2.3545,0.4977,9.5845
2026-04-18T09:58:27.115Z,58689.0,2062.0,2302.0,0.0,-2.3198,0.5168,9.5976
2026-04-18T09:58:27.115Z,58709.0,2062.0,2324.0,0.0,-2.3198,0.5168,9.5976
2026-04-18T09:58:27.115Z,58729.0,2062.0,2324.0,0.0,-2.3689,0.5456,9.5821
2026-04-18T09:58:27.177Z,58749.0,2062.0,2350.0,0.0,-2.3689,0.5456,9.5821
2026-04-18T09:58:27.178Z,58769.0,2062.0,2372.0,0.0,-2.3677,0.5252,9.5856
2026-04-18T09:58:27.178Z,58789.0,2062.0,2372.0,0.0,-2.3354,0.5037,9.5904
2026-04-18T09:58:27.240Z,58809.0,2059.0,2372.0,0.0,-2.3354,0.5037,9.5904
2026-04-18T09:58:27.240Z,58829.0,2059.0,2380.0,0.0,-2.3294,0.5192,9.5928
2026-04-18T09:58:27.240Z,58849.0,2059.0,2380.0,0.0,-2.3294,0.5192,9.5928
2026-04-18T09:58:27.302Z,58869.0,2059.0,2393.0,0.0,-2.3665,0.5288,9.5856
2026-04-18T09:58:27.307Z,58889.0,2062.0,2388.0,0.0,-2.3557,0.5264,9.5916
2026-04-18T09:58:27.308Z,58909.0,2062.0,2388.0,0.0,-2.3557,0.5264,9.5916
2026-04-18T09:58:27.371Z,58929.0,2062.0,2372.0,0.0,-2.339,0.518,9.5904
2026-04-18T09:58:27.372Z,58949.0,2062.0,2372.0,0.0,-2.339,0.518,9.5904
2026-04-18T09:58:27.372Z,58969.0,2062.0,2357.0,0.0,-2.3498,0.5157,9.5833
2026-04-18T09:58:27.496Z,58989.0,2065.0,2357.0,0.0,-2.3545,0.518,9.5845
2026-04-18T09:58:27.497Z,59009.0,2065.0,2339.0,0.0,-2.3545,0.518,9.5845
2026-04-18T09:58:27.497Z,59030.0,2065.0,2339.0,0.0,-2.3474,0.5228,9.5892
2026-04-18T09:58:27.500Z,59049.0,2065.0,2316.0,0.0,-2.3474,0.5228,9.5892
2026-04-18T09:58:27.501Z,59069.0,2065.0,2316.0,0.0,-2.3474,0.5228,9.5892
2026-04-18T09:58:27.542Z,59089.0,2065.0,2316.0,0.0,-2.3498,0.518,9.5892
2026-04-18T09:58:27.543Z,59109.0,2065.0,2301.0,0.0,-2.3533,0.5157,9.5856
2026-04-18T09:58:27.543Z,59129.0,2065.0,2278.0,0.0,-2.3533,0.5157,9.5856
2026-04-18T09:58:27.543Z,59150.0,2065.0,2278.0,0.0,-2.3486,0.524,9.5904
2026-04-18T09:58:27.608Z,59170.0,2065.0,2262.0,0.0,-2.3486,0.524,9.5904
2026-04-18T09:58:27.608Z,59190.0,2065.0,2262.0,0.0,-2.3557,0.5324,9.5856
2026-04-18T09:58:27.609Z,59210.0,2065.0,2246.0,0.0,-2.3509,0.5276,9.5868
2026-04-18T09:58:27.671Z,59230.0,2065.0,2246.0,0.0,-2.3509,0.5276,9.5868
2026-04-18T09:58:27.672Z,59250.0,2065.0,2236.0,0.0,-2.3474,0.5216,9.5868
2026-04-18T09:58:27.672Z,59269.0,2065.0,2236.0,0.0,-2.3474,0.5216,9.5868
2026-04-18T09:58:27.775Z,59289.0,2065.0,2236.0,0.0,-2.3474,0.5216,9.5868
2026-04-18T09:58:27.776Z,59309.0,2065.0,2236.0,0.0,-2.3474,0.5216,9.5868
2026-04-18T09:58:27.776Z,59329.0,2065.0,2249.0,0.0,-2.3474,0.5216,9.5868
2026-04-18T09:58:27.776Z,59349.0,2065.0,2249.0,0.0,-2.3474,0.5216,9.5868
2026-04-18T09:58:27.777Z,59369.0,2065.0,2249.0,0.0,-2.3474,0.5216,9.5868
2026-04-18T09:58:27.842Z,59389.0,2065.0,2270.0,0.0,-2.3474,0.5216,9.5868
2026-04-18T09:58:27.842Z,59409.0,2065.0,2286.0,0.0,-2.3474,0.5216,9.5868
2026-04-18T09:58:27.843Z,59429.0,2065.0,2286.0,0.0,-2.3474,0.5216,9.5868
2026-04-18T09:58:27.843Z,59449.0,2065.0,2286.0,0.0,-2.3474,0.5216,9.5868
2026-04-18T09:58:27.909Z,59469.0,2065.0,2292.0,0.0,-2.3474,0.5216,9.5868
2026-04-18T09:58:27.910Z,59489.0,2065.0,2292.0,0.0,-2.3474,0.5216,9.5868
2026-04-18T09:58:27.911Z,59509.0,2065.0,2306.0,0.0,-2.3474,0.5216,9.5868
2026-04-18T09:58:27.974Z,59529.0,2065.0,2306.0,0.0,-2.3354,0.5121,9.5856
2026-04-18T09:58:27.975Z,59549.0,2065.0,2324.0,0.0,-2.3462,0.5192,9.588
2026-04-18T09:58:27.976Z,59569.0,2065.0,2324.0,0.0,-2.3462,0.5192,9.588
2026-04-18T09:58:28.038Z,59589.0,2065.0,2334.0,0.0,-2.3593,0.5288,9.5868
2026-04-18T09:58:28.039Z,59609.0,2065.0,2334.0,0.0,-2.3593,0.5288,9.5868
2026-04-18T09:58:28.039Z,59629.0,2065.0,2336.0,0.0,-2.3462,0.5264,9.588
2026-04-18T09:58:28.081Z,59649.0,2065.0,2336.0,0.0,-2.3342,0.5168,9.5892
2026-04-18T09:58:28.084Z,59669.0,2062.0,2328.0,0.0,-2.3342,0.5168,9.5892
2026-04-18T09:58:28.084Z,59689.0,2062.0,2328.0,0.0,-2.3533,0.524,9.5856
2026-04-18T09:58:28.209Z,59709.0,2062.0,2309.0,0.0,-2.3533,0.524,9.5856
2026-04-18T09:58:28.209Z,59729.0,2062.0,2309.0,0.0,-2.3653,0.5348,9.5856
2026-04-18T09:58:28.209Z,59749.0,2062.0,2283.0,0.0,-2.345,0.5288,9.5833
2026-04-18T09:58:28.209Z,59769.0,2062.0,2283.0,0.0,-2.345,0.5288,9.5833
2026-04-18T09:58:28.209Z,59789.0,2062.0,2259.0,0.0,-2.3474,0.5192,9.5809
2026-04-18T09:58:28.273Z,59809.0,2062.0,2259.0,0.0,-2.3474,0.5192,9.5809
2026-04-18T09:58:28.273Z,59829.0,2062.0,2250.0,0.0,-2.3569,0.5228,9.5845
2026-04-18T09:58:28.273Z,59849.0,2062.0,2250.0,0.0,-2.3569,0.5228,9.5845
2026-04-18T09:58:28.273Z,59870.0,2062.0,2244.0,0.0,-2.3498,0.5252,9.5856
2026-04-18T09:58:28.317Z,59889.0,2062.0,2244.0,0.0,-2.3498,0.5252,9.5856
2026-04-18T09:58:28.317Z,59909.0,2062.0,2246.0,0.0,-2.3462,0.5204,9.5928
2026-04-18T09:58:28.317Z,59930.0,2062.0,2246.0,0.0,-2.3462,0.5204,9.5928
2026-04-18T09:58:28.381Z,59949.0,2065.0,2249.0,0.0,-2.3533,0.5204,9.5904
2026-04-18T09:58:28.382Z,59971.0,2065.0,2247.0,0.0,-2.3533,0.5288,9.5856
2026-04-18T09:58:28.383Z,59991.0,2065.0,2247.0,0.0,-2.3533,0.5288,9.5856
2026-04-18T09:58:28.508Z,60011.0,2065.0,2251.0,0.0,-2.3521,0.5276,9.5916
2026-04-18T09:58:28.510Z,60031.0,2065.0,2251.0,0.0,-2.3521,0.5276,9.5916
2026-04-18T09:58:28.511Z,60051.0,2065.0,2268.0,0.0,-2.3557,0.5228,9.5833
2026-04-18T09:58:28.511Z,60071.0,2065.0,2268.0,0.0,-2.3557,0.5228,9.5833
2026-04-18T09:58:28.512Z,60091.0,2065.0,2297.0,0.0,-2.3641,0.5252,9.5856
2026-04-18T09:58:28.553Z,60111.0,2065.0,2297.0,0.0,-2.3486,0.5216,9.5856
2026-04-18T09:58:28.553Z,60131.0,2065.0,2318.0,0.0,-2.3486,0.5216,9.5856
2026-04-18T09:58:28.554Z,60151.0,2065.0,2318.0,0.0,-2.3318,0.5157,9.588
2026-04-18T09:58:28.554Z,60171.0,2065.0,2331.0,0.0,-2.3318,0.5157,9.588
2026-04-18T09:58:28.619Z,60191.0,2065.0,2331.0,0.0,-2.3474,0.524,9.588
2026-04-18T09:58:28.623Z,60211.0,2065.0,2340.0,0.0,-2.3557,0.53,9.5845
2026-04-18T09:58:28.634Z,60231.0,2065.0,2340.0,0.0,-2.3557,0.53,9.5845
2026-04-18T09:58:28.683Z,60251.0,2065.0,2338.0,0.0,-2.3462,0.524,9.5833
2026-04-18T09:58:28.683Z,60269.0,2065.0,2338.0,0.0,-2.3462,0.524,9.5833
2026-04-18T09:58:28.683Z,60289.0,2065.0,2338.0,0.0,-2.3462,0.524,9.5833
2026-04-18T09:58:28.746Z,60309.0,2065.0,2344.0,0.0,-2.3462,0.524,9.5833
2026-04-18T09:58:28.746Z,60329.0,2065.0,2344.0,0.0,-2.3462,0.524,9.5833
2026-04-18T09:58:28.746Z,60349.0,2065.0,2355.0,0.0,-2.3462,0.524,9.5833
2026-04-18T09:58:28.809Z,60369.0,2065.0,2355.0,0.0,-2.3462,0.524,9.5833
2026-04-18T09:58:28.809Z,60389.0,2065.0,2359.0,0.0,-2.3462,0.524,9.5833
2026-04-18T09:58:28.810Z,60409.0,2065.0,2359.0,0.0,-2.3462,0.524,9.5833
2026-04-18T09:58:28.871Z,60429.0,2065.0,2358.0,0.0,-2.3462,0.524,9.5833
2026-04-18T09:58:28.871Z,60449.0,2065.0,2358.0,0.0,-2.3462,0.524,9.5833
2026-04-18T09:58:28.872Z,60469.0,2065.0,2345.0,0.0,-2.3462,0.524,9.5833
2026-04-18T09:58:28.915Z,60489.0,2065.0,2345.0,0.0,-2.3462,0.524,9.5833
2026-04-18T09:58:28.915Z,60509.0,2065.0,2330.0,0.0,-2.3462,0.524,9.5833
2026-04-18T09:58:28.919Z,60529.0,2065.0,2330.0,0.0,-2.3569,0.5336,9.5845
2026-04-18T09:58:28.980Z,60549.0,2065.0,2315.0,0.0,-2.3605,0.5372,9.5821
2026-04-18T09:58:28.980Z,60569.0,2065.0,2315.0,0.0,-2.3605,0.5372,9.5821
2026-04-18T09:58:28.981Z,60589.0,2065.0,2298.0,0.0,-2.3438,0.5204,9.5856
2026-04-18T09:58:29.038Z,60609.0,2065.0,2298.0,0.0,-2.3438,0.5204,9.5856
2026-04-18T09:58:29.038Z,60629.0,2065.0,2279.0,0.0,-2.3438,0.5073,9.5916
2026-04-18T09:58:29.039Z,60649.0,2065.0,2279.0,0.0,-2.3593,0.5204,9.588
2026-04-18T09:58:29.101Z,60669.0,2065.0,2269.0,0.0,-2.3593,0.5204,9.588
2026-04-18T09:58:29.101Z,60689.0,2065.0,2269.0,0.0,-2.3474,0.5276,9.5856
2026-04-18T09:58:29.102Z,60709.0,2065.0,2263.0,0.0,-2.3474,0.5276,9.5856
2026-04-18T09:58:29.225Z,60729.0,2065.0,2263.0,0.0,-2.3509,0.5312,9.5892
2026-04-18T09:58:29.225Z,60749.0,2065.0,2255.0,0.0,-2.3509,0.5312,9.5892
2026-04-18T09:58:29.226Z,60769.0,2065.0,2255.0,0.0,-2.3569,0.5157,9.5868
2026-04-18T09:58:29.226Z,60789.0,2065.0,2257.0,0.0,-2.3498,0.5204,9.5856
2026-04-18T09:58:29.227Z,60809.0,2065.0,2257.0,0.0,-2.3498,0.5204,9.5856
2026-04-18T09:58:29.289Z,60829.0,2065.0,2259.0,0.0,-2.3486,0.53,9.5868
2026-04-18T09:58:29.289Z,60849.0,2065.0,2259.0,0.0,-2.3486,0.53,9.5868
2026-04-18T09:58:29.289Z,60869.0,2065.0,2269.0,0.0,-2.3593,0.524,9.5845
2026-04-18T09:58:29.289Z,60889.0,2065.0,2269.0,0.0,-2.3533,0.518,9.5856
2026-04-18T09:58:29.333Z,60909.0,2065.0,2284.0,0.0,-2.3533,0.518,9.5856
2026-04-18T09:58:29.395Z,60930.0,2065.0,2284.0,0.0,-2.3533,0.518,9.5856
2026-04-18T09:58:29.522Z,60949.0,2065.0,2301.0,0.0,-2.339,0.5168,9.5856
2026-04-18T09:58:29.522Z,60969.0,2065.0,2301.0,0.0,-2.339,0.5168,9.5856
2026-04-18T09:58:29.522Z,60989.0,2065.0,2326.0,0.0,-2.345,0.5288,9.588
2026-04-18T09:58:29.522Z,61010.0,2065.0,2326.0,0.0,-2.3557,0.5264,9.5868
2026-04-18T09:58:29.522Z,61030.0,2065.0,2339.0,0.0,-2.3557,0.5264,9.5868
2026-04-18T09:58:29.584Z,61050.0,2065.0,2339.0,0.0,-2.3521,0.5216,9.5856
2026-04-18T09:58:29.584Z,61070.0,2065.0,2351.0,0.0,-2.3521,0.5216,9.5856
2026-04-18T09:58:29.585Z,61090.0,2065.0,2351.0,0.0,-2.3402,0.5168,9.5821
2026-04-18T09:58:29.585Z,61110.0,2065.0,2371.0,0.0,-2.3581,0.5216,9.5845
2026-04-18T09:58:29.586Z,61130.0,2065.0,2371.0,0.0,-2.3581,0.5216,9.5845
2026-04-18T09:58:29.648Z,61150.0,2065.0,2387.0,0.0,-2.3486,0.5252,9.5821
2026-04-18T09:58:29.648Z,61170.0,2065.0,2387.0,0.0,-2.3486,0.5252,9.5821
2026-04-18T09:58:29.649Z,61190.0,2065.0,2391.0,0.0,-2.3474,0.524,9.5892
2026-04-18T09:58:29.649Z,61210.0,2062.0,2391.0,0.0,-2.3474,0.524,9.5892
2026-04-18T09:58:29.650Z,61230.0,2062.0,2386.0,0.0,-2.3653,0.5192,9.5845
2026-04-18T09:58:29.692Z,61250.0,2062.0,2386.0,0.0,-2.3498,0.5252,9.5892
2026-04-18T09:58:29.714Z,61269.0,2062.0,2365.0,0.0,-2.3498,0.5252,9.5892
2026-04-18T09:58:29.714Z,61289.0,2062.0,2365.0,0.0,-2.3498,0.5252,9.5892
2026-04-18T09:58:29.715Z,61309.0,2062.0,2302.0,0.0,-2.3498,0.5252,9.5892
2026-04-18T09:58:29.756Z,61329.0,2062.0,2302.0,0.0,-2.3498,0.5252,9.5892
2026-04-18T09:58:29.758Z,61349.0,2062.0,2212.0,0.0,-2.3498,0.5252,9.5892
2026-04-18T09:58:29.759Z,61369.0,2062.0,2212.0,0.0,-2.3498,0.5252,9.5892
2026-04-18T09:58:29.828Z,61389.0,2062.0,2123.0,0.0,-2.3498,0.5252,9.5892
2026-04-18T09:58:29.832Z,61409.0,2062.0,2123.0,0.0,-2.3498,0.5252,9.5892
2026-04-18T09:58:29.833Z,61429.0,2062.0,2064.0,0.0,-2.3498,0.5252,9.5892
2026-04-18T09:58:29.875Z,61449.0,2062.0,2064.0,0.0,-2.3498,0.5252,9.5892
2026-04-18T09:58:29.875Z,61469.0,2062.0,1996.0,0.0,-2.3498,0.5252,9.5892
2026-04-18T09:58:29.875Z,61489.0,2062.0,1996.0,0.0,-2.3498,0.5252,9.5892
2026-04-18T09:58:29.938Z,61509.0,2062.0,1926.0,0.0,-2.3498,0.5252,9.5892
2026-04-18T09:58:29.938Z,61529.0,2062.0,1926.0,0.0,-2.3581,0.5432,9.5845
2026-04-18T09:58:29.938Z,61549.0,2062.0,1855.0,0.0,-2.345,0.5276,9.5845
2026-04-18T09:58:30.001Z,61569.0,2062.0,1855.0,0.0,-2.345,0.5276,9.5845
2026-04-18T09:58:30.001Z,61590.0,2062.0,1786.0,0.0,-2.3533,0.5037,9.5868
2026-04-18T09:58:30.002Z,61609.0,2062.0,1786.0,0.0,-2.3533,0.5037,9.5868
2026-04-18T09:58:30.064Z,61629.0,2062.0,1729.0,0.0,-2.3438,0.5192,9.5868
2026-04-18T09:58:30.064Z,61649.0,2062.0,1729.0,0.0,-2.3438,0.5192,9.5868
2026-04-18T09:58:30.066Z,61669.0,2062.0,1666.0,0.0,-2.339,0.536,9.5797
2026-04-18T09:58:30.129Z,61689.0,2062.0,1666.0,0.0,-2.3797,0.5324,9.5761
2026-04-18T09:58:30.129Z,61709.0,2062.0,1614.0,0.0,-2.3797,0.5324,9.5761
2026-04-18T09:58:30.129Z,61729.0,2062.0,1614.0,0.0,-2.3509,0.5073,9.5856
2026-04-18T09:58:30.267Z,61749.0,2062.0,1576.0,0.0,-2.3509,0.5073,9.5856
2026-04-18T09:58:30.272Z,61769.0,2062.0,1576.0,0.0,-2.3426,0.5264,9.588
2026-04-18T09:58:30.274Z,61789.0,2062.0,1545.0,0.0,-2.339,0.5324,9.5833
2026-04-18T09:58:30.297Z,61809.0,2062.0,1545.0,0.0,-2.339,0.5324,9.5833
2026-04-18T09:58:30.297Z,61829.0,2062.0,1513.0,0.0,-2.3593,0.5204,9.5845
2026-04-18T09:58:30.297Z,61849.0,2062.0,1513.0,0.0,-2.3593,0.5204,9.5845
2026-04-18T09:58:30.300Z,61869.0,2065.0,1479.0,0.0,-2.3486,0.5204,9.5928
2026-04-18T09:58:30.301Z,61889.0,2065.0,1479.0,0.0,-2.3545,0.5133,9.5856
2026-04-18T09:58:30.365Z,61909.0,2065.0,1454.0,0.0,-2.3545,0.5133,9.5856
2026-04-18T09:58:30.365Z,61929.0,2065.0,1454.0,0.0,-2.3509,0.5145,9.5833
2026-04-18T09:58:30.365Z,61949.0,2065.0,1455.0,0.0,-2.3509,0.5145,9.5833
2026-04-18T09:58:30.365Z,61969.0,2065.0,1455.0,0.0,-2.3474,0.5348,9.5833
2026-04-18T09:58:30.429Z,61989.0,2065.0,1472.0,0.0,-2.3486,0.5372,9.588
2026-04-18T09:58:30.429Z,62009.0,2065.0,1472.0,0.0,-2.3486,0.5372,9.588
2026-04-18T09:58:30.429Z,62029.0,2065.0,1488.0,0.0,-2.3545,0.5228,9.5856
2026-04-18T09:58:30.491Z,62049.0,2065.0,1488.0,0.0,-2.3545,0.5228,9.5856
2026-04-18T09:58:30.492Z,62069.0,2065.0,1475.0,0.0,-2.3569,0.5133,9.588
2026-04-18T09:58:30.492Z,62089.0,2065.0,1475.0,0.0,-2.3569,0.5133,9.588
2026-04-18T09:58:30.534Z,62109.0,2065.0,1461.0,0.0,-2.3569,0.5133,9.588
2026-04-18T09:58:30.536Z,62129.0,2065.0,1461.0,0.0,-2.3462,0.5192,9.5856
2026-04-18T09:58:30.536Z,62150.0,2065.0,1451.0,0.0,-2.3605,0.5312,9.5809
2026-04-18T09:58:30.597Z,62170.0,2065.0,1451.0,0.0,-2.3605,0.5312,9.5809
2026-04-18T09:58:30.598Z,62190.0,2065.0,1456.0,0.0,-2.3581,0.5252,9.5904
2026-04-18T09:58:30.598Z,62211.0,2065.0,1456.0,0.0,-2.3581,0.5252,9.5904
2026-04-18T09:58:30.659Z,62231.0,2065.0,1478.0,0.0,-2.3354,0.5061,9.5868
2026-04-18T09:58:30.659Z,62252.0,2065.0,1478.0,0.0,-2.3569,0.5204,9.5809
2026-04-18T09:58:30.659Z,62269.0,2065.0,1533.0,0.0,-2.3569,0.5204,9.5809
2026-04-18T09:58:30.722Z,62289.0,2065.0,1533.0,0.0,-2.3569,0.5204,9.5809
2026-04-18T09:58:30.723Z,62309.0,2065.0,1604.0,0.0,-2.3569,0.5204,9.5809
2026-04-18T09:58:30.724Z,62329.0,2065.0,1604.0,0.0,-2.3569,0.5204,9.5809
2026-04-18T09:58:30.773Z,62349.0,2065.0,1643.0,0.0,-2.3569,0.5204,9.5809
2026-04-18T09:58:30.773Z,62369.0,2065.0,1643.0,0.0,-2.3569,0.5204,9.5809
2026-04-18T09:58:30.794Z,62389.0,2065.0,1651.0,0.0,-2.3569,0.5204,9.5809
2026-04-18T09:58:30.863Z,62409.0,2065.0,1651.0,0.0,-2.3569,0.5204,9.5809
2026-04-18T09:58:30.863Z,62429.0,2065.0,1612.0,0.0,-2.3569,0.5204,9.5809
2026-04-18T09:58:30.864Z,62449.0,2065.0,1612.0,0.0,-2.3569,0.5204,9.5809
2026-04-18T09:58:30.993Z,62469.0,2065.0,1598.0,0.0,-2.3569,0.5204,9.5809
2026-04-18T09:58:31.005Z,62489.0,2065.0,1598.0,0.0,-2.3569,0.5204,9.5809
2026-04-18T09:58:31.007Z,62509.0,2065.0,1659.0,0.0,-2.3569,0.5204,9.5809
2026-04-18T09:58:31.015Z,62529.0,2065.0,1659.0,0.0,-2.3521,0.5324,9.5916
2026-04-18T09:58:31.025Z,62549.0,2065.0,1818.0,0.0,-2.3581,0.5037,9.5928
2026-04-18T09:58:31.028Z,62569.0,2065.0,1818.0,0.0,-2.3581,0.5037,9.5928
2026-04-18T09:58:31.032Z,62589.0,2065.0,2083.0,0.0,-2.3163,0.5001,9.5916
2026-04-18T09:58:31.035Z,62609.0,2065.0,2083.0,0.0,-2.3163,0.5001,9.5916
2026-04-18T09:58:31.036Z,62629.0,2065.0,2336.0,0.0,-2.3103,0.518,9.6048
2026-04-18T09:58:31.080Z,62649.0,2065.0,2336.0,0.0,-2.3342,0.536,9.588
2026-04-18T09:58:31.082Z,62670.0,2065.0,2442.0,0.0,-2.3342,0.536,9.588
2026-04-18T09:58:31.086Z,62689.0,2065.0,2442.0,0.0,-2.3844,0.536,9.5761
2026-04-18T09:58:31.149Z,62709.0,2065.0,2402.0,0.0,-2.3844,0.536,9.5761
2026-04-18T09:58:31.151Z,62729.0,2065.0,2402.0,0.0,-2.3593,0.518,9.5845
2026-04-18T09:58:31.154Z,62749.0,2065.0,2329.0,0.0,-2.3593,0.518,9.5845
2026-04-18T09:58:31.197Z,62769.0,2065.0,2329.0,0.0,-2.3486,0.5168,9.5904
2026-04-18T09:58:31.258Z,62789.0,2065.0,2276.0,0.0,-2.3462,0.5192,9.588
2026-04-18T09:58:31.259Z,62809.0,2065.0,2276.0,0.0,-2.3462,0.5192,9.588
2026-04-18T09:58:31.259Z,62829.0,2065.0,2250.0,0.0,-2.3581,0.5145,9.5833
2026-04-18T09:58:31.260Z,62849.0,2065.0,2250.0,0.0,-2.3581,0.5145,9.5833
2026-04-18T09:58:31.260Z,62869.0,2065.0,2231.0,0.0,-2.3581,0.5145,9.5833
2026-04-18T09:58:31.322Z,62889.0,2065.0,2231.0,0.0,-2.3402,0.5085,9.5928
2026-04-18T09:58:31.322Z,62909.0,2065.0,2214.0,0.0,-2.339,0.5204,9.5845
2026-04-18T09:58:31.322Z,62929.0,2062.0,2214.0,0.0,-2.339,0.5204,9.5845
2026-04-18T09:58:31.385Z,62949.0,2062.0,2172.0,0.0,-2.3486,0.5157,9.5856
2026-04-18T09:58:31.385Z,62970.0,2062.0,2172.0,0.0,-2.3486,0.5157,9.5856
2026-04-18T09:58:31.386Z,62990.0,2062.0,2144.0,0.0,-2.3665,0.5204,9.5833
2026-04-18T09:58:31.448Z,63010.0,2062.0,2144.0,0.0,-2.3509,0.5288,9.5845
2026-04-18T09:58:31.448Z,63030.0,2062.0,2176.0,0.0,-2.3509,0.5288,9.5845
2026-04-18T09:58:31.448Z,63050.0,2062.0,2176.0,0.0,-2.3282,0.5192,9.5952
2026-04-18T09:58:31.511Z,63071.0,2062.0,2169.0,0.0,-2.3282,0.5192,9.5952
2026-04-18T09:58:31.552Z,63091.0,2062.0,2169.0,0.0,-2.3474,0.5073,9.588
2026-04-18T09:58:31.555Z,63111.0,2062.0,2075.0,0.0,-2.3653,0.5228,9.5797
2026-04-18T09:58:31.556Z,63131.0,2062.0,2075.0,0.0,-2.3653,0.5228,9.5797
2026-04-18T09:58:31.557Z,63151.0,2062.0,1968.0,0.0,-2.3677,0.5396,9.5856
2026-04-18T09:58:31.579Z,63172.0,2062.0,1900.0,0.0,-2.3677,0.5396,9.5856
2026-04-18T09:58:31.621Z,63192.0,2062.0,1900.0,0.0,-2.3569,0.53,9.5833
2026-04-18T09:58:31.621Z,63211.0,2062.0,1900.0,0.0,-2.3569,0.53,9.5833
2026-04-18T09:58:31.621Z,63232.0,2062.0,1878.0,0.0,-2.333,0.4953,9.588
2026-04-18T09:58:31.683Z,63252.0,2062.0,1878.0,0.0,-2.3438,0.5085,9.5833
2026-04-18T09:58:31.683Z,63269.0,2062.0,1880.0,0.0,-2.3438,0.5085,9.5833
2026-04-18T09:58:31.683Z,63289.0,2062.0,1880.0,0.0,-2.3438,0.5085,9.5833
2026-04-18T09:58:31.747Z,63309.0,2062.0,1890.0,0.0,-2.3438,0.5085,9.5833
2026-04-18T09:58:31.747Z,63329.0,2062.0,1890.0,0.0,-2.3438,0.5085,9.5833
2026-04-18T09:58:31.748Z,63349.0,2062.0,1901.0,0.0,-2.3438,0.5085,9.5833
2026-04-18T09:58:31.810Z,63369.0,2062.0,1901.0,0.0,-2.3438,0.5085,9.5833
2026-04-18T09:58:31.810Z,63389.0,2062.0,1925.0,0.0,-2.3438,0.5085,9.5833
2026-04-18T09:58:31.811Z,63409.0,2062.0,1925.0,0.0,-2.3438,0.5085,9.5833
2026-04-18T09:58:31.853Z,63429.0,2062.0,1953.0,0.0,-2.3438,0.5085,9.5833
2026-04-18T09:58:31.874Z,63449.0,2062.0,1953.0,0.0,-2.3438,0.5085,9.5833
2026-04-18T09:58:31.875Z,63469.0,2062.0,1939.0,0.0,-2.3438,0.5085,9.5833
2026-04-18T09:58:31.979Z,63489.0,2062.0,1939.0,0.0,-2.3438,0.5085,9.5833
2026-04-18T09:58:31.979Z,63509.0,2062.0,1899.0,0.0,-2.3438,0.5085,9.5833
2026-04-18T09:58:31.979Z,63529.0,2062.0,1899.0,0.0,-2.3593,0.5348,9.5833
2026-04-18T09:58:31.980Z,63549.0,2065.0,1862.0,0.0,-2.3521,0.5288,9.5845
2026-04-18T09:58:31.980Z,63569.0,2065.0,1862.0,0.0,-2.3521,0.5288,9.5845
2026-04-18T09:58:32.042Z,63589.0,2065.0,1877.0,0.0,-2.3665,0.5168,9.588
2026-04-18T09:58:32.042Z,63609.0,2065.0,1877.0,0.0,-2.3665,0.5168,9.588
2026-04-18T09:58:32.043Z,63629.0,2065.0,1922.0,0.0,-2.3354,0.5192,9.5868
2026-04-18T09:58:32.043Z,63649.0,2065.0,1922.0,0.0,-2.3354,0.5192,9.5868
2026-04-18T09:58:32.105Z,63669.0,2065.0,1967.0,0.0,-2.3366,0.5204,9.5868
2026-04-18T09:58:32.105Z,63689.0,2065.0,1967.0,0.0,-2.3665,0.5312,9.588
2026-04-18T09:58:32.106Z,63709.0,2065.0,1998.0,0.0,-2.3665,0.5312,9.588
2026-04-18T09:58:32.168Z,63729.0,2065.0,1998.0,0.0,-2.3617,0.5264,9.5797
2026-04-18T09:58:32.168Z,63749.0,2065.0,2032.0,0.0,-2.3617,0.5264,9.5797
2026-04-18T09:58:32.169Z,63769.0,2065.0,2032.0,0.0,-2.3426,0.5228,9.5845
2026-04-18T09:58:32.230Z,63789.0,2065.0,2091.0,0.0,-2.339,0.5168,9.5904
2026-04-18T09:58:32.231Z,63809.0,2065.0,2091.0,0.0,-2.339,0.5168,9.5904
2026-04-18T09:58:32.232Z,63829.0,2065.0,2157.0,0.0,-2.3521,0.5264,9.588
2026-04-18T09:58:32.301Z,63849.0,2065.0,2157.0,0.0,-2.3521,0.5264,9.588
2026-04-18T09:58:32.343Z,63869.0,2065.0,2186.0,0.0,-2.3462,0.5252,9.5892
2026-04-18T09:58:32.343Z,63889.0,2065.0,2186.0,0.0,-2.3462,0.5252,9.5892
2026-04-18T09:58:32.343Z,63909.0,2065.0,2204.0,0.0,-2.3569,0.524,9.5856
2026-04-18T09:58:32.344Z,63930.0,2065.0,2204.0,0.0,-2.3569,0.524,9.5856
2026-04-18T09:58:32.344Z,63950.0,2065.0,2218.0,0.0,-2.3545,0.5312,9.5845
2026-04-18T09:58:32.406Z,63969.0,2065.0,2218.0,0.0,-2.3545,0.5312,9.5845
2026-04-18T09:58:32.406Z,63990.0,2065.0,2229.0,0.0,-2.3486,0.5228,9.5868
2026-04-18T09:58:32.407Z,64010.0,2065.0,2229.0,0.0,-2.3438,0.5085,9.5928
2026-04-18T09:58:32.470Z,64030.0,2065.0,2224.0,0.0,-2.3438,0.5085,9.5928
2026-04-18T09:58:32.470Z,64051.0,2065.0,2224.0,0.0,-2.3545,0.5216,9.5809
2026-04-18T09:58:32.471Z,64072.0,2065.0,2198.0,0.0,-2.3545,0.5216,9.5809
2026-04-18T09:58:32.533Z,64092.0,2065.0,2198.0,0.0,-2.3486,0.5336,9.5845
2026-04-18T09:58:32.533Z,64109.0,2065.0,2176.0,0.0,-2.3462,0.5204,9.5904
2026-04-18T09:58:32.533Z,64129.0,2065.0,2176.0,0.0,-2.3462,0.5204,9.5904
2026-04-18T09:58:32.576Z,64150.0,2065.0,2173.0,0.0,-2.345,0.5168,9.588
2026-04-18T09:58:32.576Z,64169.0,2065.0,2173.0,0.0,-2.345,0.5168,9.588
2026-04-18T09:58:32.576Z,64189.0,2065.0,2189.0,0.0,-2.3545,0.5288,9.5856
2026-04-18T09:58:32.700Z,64209.0,2065.0,2189.0,0.0,-2.3521,0.5324,9.5785
2026-04-18T09:58:32.700Z,64229.0,2062.0,2237.0,0.0,-2.3521,0.5324,9.5785
2026-04-18T09:58:32.700Z,64249.0,2062.0,2237.0,0.0,-2.345,0.5216,9.588
2026-04-18T09:58:32.701Z,64269.0,2062.0,2300.0,0.0,-2.345,0.5216,9.588
2026-04-18T09:58:32.701Z,64289.0,2062.0,2300.0,0.0,-2.345,0.5216,9.588
2026-04-18T09:58:32.763Z,64309.0,2062.0,2318.0,0.0,-2.345,0.5216,9.588
2026-04-18T09:58:32.763Z,64329.0,2062.0,2318.0,0.0,-2.345,0.5216,9.588
2026-04-18T09:58:32.765Z,64349.0,2062.0,2297.0,0.0,-2.345,0.5216,9.588
2026-04-18T09:58:32.765Z,64369.0,2062.0,2297.0,0.0,-2.345,0.5216,9.588
2026-04-18T09:58:32.814Z,64389.0,2062.0,2281.0,0.0,-2.345,0.5216,9.588
2026-04-18T09:58:32.818Z,64409.0,2062.0,2281.0,0.0,-2.345,0.5216,9.588
2026-04-18T09:58:32.818Z,64429.0,2062.0,2299.0,0.0,-2.345,0.5216,9.588
2026-04-18T09:58:32.884Z,64449.0,2062.0,2299.0,0.0,-2.345,0.5216,9.588
2026-04-18T09:58:32.884Z,64469.0,2062.0,2340.0,0.0,-2.345,0.5216,9.588
2026-04-18T09:58:32.885Z,64489.0,2062.0,2340.0,0.0,-2.345,0.5216,9.588
2026-04-18T09:58:32.948Z,64509.0,2062.0,2380.0,0.0,-2.345,0.5216,9.588
2026-04-18T09:58:32.948Z,64529.0,2062.0,2380.0,0.0,-2.345,0.5157,9.5856
2026-04-18T09:58:33.010Z,64549.0,2062.0,2404.0,0.0,-2.3426,0.5228,9.5904
2026-04-18T09:58:33.010Z,64569.0,2062.0,2404.0,0.0,-2.3426,0.5228,9.5904
2026-04-18T09:58:33.011Z,64589.0,2062.0,2425.0,0.0,-2.3474,0.5264,9.5856
2026-04-18T09:58:33.011Z,64609.0,2062.0,2425.0,0.0,-2.3474,0.5264,9.5856
2026-04-18T09:58:33.053Z,64629.0,2062.0,2414.0,0.0,-2.3581,0.5252,9.5821
2026-04-18T09:58:33.053Z,64649.0,2062.0,2414.0,0.0,-2.3474,0.5133,9.5833
2026-04-18T09:58:33.054Z,64669.0,2062.0,2396.0,0.0,-2.3474,0.5133,9.5833
2026-04-18T09:58:33.117Z,64689.0,2062.0,2396.0,0.0,-2.3474,0.5192,9.5868
2026-04-18T09:58:33.117Z,64709.0,2062.0,2388.0,0.0,-2.3474,0.5192,9.5868
2026-04-18T09:58:33.118Z,64729.0,2062.0,2388.0,0.0,-2.3498,0.5252,9.5892
2026-04-18T09:58:33.180Z,64749.0,2062.0,2365.0,0.0,-2.3498,0.5252,9.5892
2026-04-18T09:58:33.180Z,64769.0,2062.0,2365.0,0.0,-2.3521,0.524,9.5845
2026-04-18T09:58:33.180Z,64789.0,2062.0,2338.0,0.0,-2.3521,0.524,9.5845
2026-04-18T09:58:33.243Z,64809.0,2062.0,2338.0,0.0,-2.3294,0.518,9.5892
2026-04-18T09:58:33.304Z,64829.0,2062.0,2278.0,0.0,-2.3294,0.518,9.5892
2026-04-18T09:58:33.304Z,64849.0,2062.0,2278.0,0.0,-2.3474,0.5157,9.5833
2026-04-18T09:58:33.306Z,64869.0,2062.0,2181.0,0.0,-2.3474,0.5157,9.5833
2026-04-18T09:58:33.306Z,64889.0,2062.0,2181.0,0.0,-2.3629,0.53,9.5821
2026-04-18T09:58:33.307Z,64909.0,2062.0,2084.0,0.0,-2.3521,0.5252,9.5833
2026-04-18T09:58:33.430Z,64929.0,2062.0,2084.0,0.0,-2.3521,0.5252,9.5833
2026-04-18T09:58:33.430Z,64949.0,2062.0,2032.0,0.0,-2.345,0.5145,9.5868
2026-04-18T09:58:33.432Z,64970.0,2062.0,2032.0,0.0,-2.345,0.5145,9.5868
2026-04-18T09:58:33.432Z,64990.0,2062.0,2021.0,0.0,-2.3605,0.5216,9.5809
2026-04-18T09:58:33.434Z,65011.0,2062.0,2021.0,0.0,-2.3474,0.5312,9.5868
2026-04-18T09:58:33.476Z,65031.0,2062.0,2029.0,0.0,-2.3474,0.5312,9.5868
2026-04-18T09:58:33.476Z,65051.0,2062.0,2029.0,0.0,-2.3533,0.524,9.5833
2026-04-18T09:58:33.477Z,65072.0,2062.0,2044.0,0.0,-2.3533,0.524,9.5833
2026-04-18T09:58:33.477Z,65092.0,2062.0,2044.0,0.0,-2.3569,0.5192,9.5856
2026-04-18T09:58:33.540Z,65112.0,2062.0,2086.0,0.0,-2.3557,0.5264,9.5833
2026-04-18T09:58:33.540Z,65132.0,2062.0,2086.0,0.0,-2.3557,0.5264,9.5833
2026-04-18T09:58:33.540Z,65152.0,2062.0,2172.0,0.0,-2.3486,0.5228,9.5868
2026-04-18T09:58:33.609Z,65172.0,2062.0,2172.0,0.0,-2.3486,0.5228,9.5868
2026-04-18T09:58:33.610Z,65192.0,2062.0,2289.0,0.0,-2.3402,0.5192,9.5833
2026-04-18T09:58:33.610Z,65212.0,2062.0,2289.0,0.0,-2.3402,0.5192,9.5833
2026-04-18T09:58:33.713Z,65232.0,2062.0,2370.0,0.0,-2.3426,0.5192,9.5892
2026-04-18T09:58:33.714Z,65252.0,2062.0,2370.0,0.0,-2.3509,0.5264,9.5845
2026-04-18T09:58:33.714Z,65269.0,2062.0,2420.0,0.0,-2.3509,0.5264,9.5845
2026-04-18T09:58:33.715Z,65289.0,2062.0,2420.0,0.0,-2.3509,0.5264,9.5845
2026-04-18T09:58:33.736Z,65309.0,2062.0,2458.0,0.0,-2.3509,0.5264,9.5845
2026-04-18T09:58:33.777Z,65329.0,2062.0,2458.0,0.0,-2.3509,0.5264,9.5845
2026-04-18T09:58:33.777Z,65349.0,2062.0,2483.0,0.0,-2.3509,0.5264,9.5845
2026-04-18T09:58:33.777Z,65369.0,2062.0,2483.0,0.0,-2.3509,0.5264,9.5845
2026-04-18T09:58:33.779Z,65389.0,2062.0,2503.0,0.0,-2.3509,0.5264,9.5845
2026-04-18T09:58:33.842Z,65409.0,2062.0,2503.0,0.0,-2.3509,0.5264,9.5845
2026-04-18T09:58:33.842Z,65430.0,2062.0,2513.0,0.0,-2.3509,0.5264,9.5845
2026-04-18T09:58:33.843Z,65449.0,2062.0,2513.0,0.0,-2.3509,0.5264,9.5845
2026-04-18T09:58:33.905Z,65469.0,2062.0,2502.0,0.0,-2.3509,0.5264,9.5845
2026-04-18T09:58:33.906Z,65489.0,2062.0,2502.0,0.0,-2.3509,0.5264,9.5845
2026-04-18T09:58:33.906Z,65509.0,2062.0,2483.0,0.0,-2.3509,0.5264,9.5845
2026-04-18T09:58:33.968Z,65529.0,2062.0,2483.0,0.0,-2.3474,0.536,9.5856
2026-04-18T09:58:33.968Z,65549.0,2062.0,2470.0,0.0,-2.3426,0.5228,9.588
2026-04-18T09:58:33.968Z,65569.0,2062.0,2470.0,0.0,-2.3426,0.5228,9.588
2026-04-18T09:58:34.011Z,65589.0,2062.0,2473.0,0.0,-2.3402,0.5049,9.588
2026-04-18T09:58:34.011Z,65609.0,2065.0,2473.0,0.0,-2.3402,0.5049,9.588
2026-04-18T09:58:34.034Z,65629.0,2065.0,2472.0,0.0,-2.3569,0.5192,9.5868
2026-04-18T09:58:34.076Z,65649.0,2065.0,2472.0,0.0,-2.3569,0.5192,9.5868
2026-04-18T09:58:34.076Z,65669.0,2065.0,2479.0,0.0,-2.345,0.5264,9.588
2026-04-18T09:58:34.076Z,65689.0,2065.0,2479.0,0.0,-2.3414,0.5204,9.5904
2026-04-18T09:58:34.139Z,65709.0,2065.0,2487.0,0.0,-2.3414,0.5204,9.5904
2026-04-18T09:58:34.139Z,65729.0,2065.0,2487.0,0.0,-2.345,0.5121,9.5904
2026-04-18T09:58:34.139Z,65749.0,2065.0,2459.0,0.0,-2.345,0.5121,9.5904
2026-04-18T09:58:34.201Z,65769.0,2065.0,2459.0,0.0,-2.3545,0.5252,9.5785
2026-04-18T09:58:34.201Z,65789.0,2065.0,2416.0,0.0,-2.3498,0.5312,9.5856
2026-04-18T09:58:34.202Z,65809.0,2065.0,2416.0,0.0,-2.3498,0.5312,9.5856
2026-04-18T09:58:34.264Z,65829.0,2065.0,2372.0,0.0,-2.3509,0.5216,9.5809
2026-04-18T09:58:34.264Z,65849.0,2065.0,2372.0,0.0,-2.3509,0.5216,9.5809
2026-04-18T09:58:34.265Z,65870.0,2065.0,2354.0,0.0,-2.3509,0.5216,9.5809
2026-04-18T09:58:34.326Z,65889.0,2065.0,2354.0,0.0,-2.3509,0.5109,9.5845
2026-04-18T09:58:34.327Z,65910.0,2065.0,2374.0,0.0,-2.3306,0.5192,9.5868
2026-04-18T09:58:34.327Z,65930.0,2065.0,2374.0,0.0,-2.3306,0.5192,9.5868
2026-04-18T09:58:34.451Z,65950.0,2065.0,2368.0,0.0,-2.3402,0.5264,9.588
2026-04-18T09:58:34.452Z,65970.0,2065.0,2368.0,0.0,-2.3402,0.5264,9.588
2026-04-18T09:58:34.452Z,65990.0,2062.0,2351.0,0.0,-2.3641,0.5216,9.5856
2026-04-18T09:58:34.452Z,66010.0,2062.0,2351.0,0.0,-2.3557,0.5204,9.5821
2026-04-18T09:58:34.453Z,66030.0,2062.0,2358.0,0.0,-2.3557,0.5204,9.5821
2026-04-18T09:58:34.494Z,66050.0,2062.0,2358.0,0.0,-2.3318,0.53,9.5964
2026-04-18T09:58:34.494Z,66070.0,2062.0,2380.0,0.0,-2.3318,0.53,9.5964
2026-04-18T09:58:34.495Z,66090.0,2062.0,2380.0,0.0,-2.3426,0.5216,9.5856
2026-04-18T09:58:34.496Z,66110.0,2062.0,2415.0,0.0,-2.3426,0.5216,9.5856
2026-04-18T09:58:34.560Z,66131.0,2062.0,2415.0,0.0,-2.3557,0.5276,9.5856
2026-04-18T09:58:34.560Z,66150.0,2062.0,2408.0,0.0,-2.3378,0.5252,9.5868
2026-04-18T09:58:34.560Z,66170.0,2062.0,2408.0,0.0,-2.3378,0.5252,9.5868
2026-04-18T09:58:34.623Z,66190.0,2062.0,2379.0,0.0,-2.3414,0.5216,9.5868
2026-04-18T09:58:34.623Z,66210.0,2062.0,2379.0,0.0,-2.3414,0.5216,9.5868
2026-04-18T09:58:34.623Z,66231.0,2062.0,2354.0,0.0,-2.3545,0.5192,9.5833
2026-04-18T09:58:34.686Z,66250.0,2062.0,2354.0,0.0,-2.345,0.5312,9.5833
2026-04-18T09:58:34.686Z,66269.0,2062.0,2328.0,0.0,-2.345,0.5312,9.5833
2026-04-18T09:58:34.686Z,66289.0,2062.0,2328.0,0.0,-2.345,0.5312,9.5833
2026-04-18T09:58:34.749Z,66309.0,2062.0,2293.0,0.0,-2.345,0.5312,9.5833
2026-04-18T09:58:34.749Z,66329.0,2062.0,2293.0,0.0,-2.345,0.5312,9.5833
2026-04-18T09:58:34.750Z,66349.0,2062.0,2286.0,0.0,-2.345,0.5312,9.5833
2026-04-18T09:58:34.812Z,66369.0,2062.0,2286.0,0.0,-2.345,0.5312,9.5833
2026-04-18T09:58:34.812Z,66389.0,2062.0,2296.0,0.0,-2.345,0.5312,9.5833
2026-04-18T09:58:34.813Z,66409.0,2062.0,2296.0,0.0,-2.345,0.5312,9.5833
2026-04-18T09:58:34.855Z,66429.0,2062.0,2298.0,0.0,-2.345,0.5312,9.5833
2026-04-18T09:58:34.856Z,66449.0,2062.0,2298.0,0.0,-2.345,0.5312,9.5833
2026-04-18T09:58:34.856Z,66469.0,2062.0,2251.0,0.0,-2.345,0.5312,9.5833
2026-04-18T09:58:34.917Z,66489.0,2062.0,2251.0,0.0,-2.345,0.5312,9.5833
2026-04-18T09:58:34.919Z,66509.0,2062.0,2188.0,0.0,-2.345,0.5312,9.5833
2026-04-18T09:58:34.919Z,66529.0,2062.0,2188.0,0.0,-2.3569,0.5468,9.5797
2026-04-18T09:58:34.981Z,66549.0,2062.0,2144.0,0.0,-2.3569,0.5468,9.5797
2026-04-18T09:58:34.984Z,66569.0,2062.0,2144.0,0.0,-2.3474,0.5168,9.5892
2026-04-18T09:58:34.986Z,66589.0,2062.0,2150.0,0.0,-2.3533,0.5145,9.5845
2026-04-18T09:58:35.051Z,66609.0,2062.0,2150.0,0.0,-2.3533,0.5145,9.5845
2026-04-18T09:58:35.073Z,66629.0,2062.0,2199.0,0.0,-2.3474,0.5384,9.5856
2026-04-18T09:58:35.073Z,66649.0,2062.0,2199.0,0.0,-2.3474,0.5384,9.5856
2026-04-18T09:58:35.156Z,66669.0,2062.0,2250.0,0.0,-2.3414,0.5264,9.588
2026-04-18T09:58:35.156Z,66689.0,2062.0,2250.0,0.0,-2.3414,0.5001,9.5821
2026-04-18T09:58:35.156Z,66709.0,2062.0,2249.0,0.0,-2.3414,0.5001,9.5821
2026-04-18T09:58:35.157Z,66729.0,2062.0,2249.0,0.0,-2.3617,0.5204,9.5833
2026-04-18T09:58:35.157Z,66749.0,2062.0,2232.0,0.0,-2.3617,0.5204,9.5833
2026-04-18T09:58:35.219Z,66769.0,2062.0,2232.0,0.0,-2.3617,0.5204,9.5833
2026-04-18T09:58:35.280Z,66790.0,2062.0,2257.0,0.0,-2.3533,0.5396,9.5833
2026-04-18T09:58:35.281Z,66809.0,2062.0,2257.0,0.0,-2.3438,0.5216,9.5904
2026-04-18T09:58:35.282Z,66829.0,2062.0,2289.0,0.0,-2.3438,0.5216,9.5904
2026-04-18T09:58:35.282Z,66849.0,2062.0,2289.0,0.0,-2.3378,0.5133,9.5845
2026-04-18T09:58:35.283Z,66869.0,2062.0,2297.0,0.0,-2.3378,0.5133,9.5845
2026-04-18T09:58:35.346Z,66890.0,2062.0,2297.0,0.0,-2.3498,0.524,9.588
2026-04-18T09:58:35.346Z,66909.0,2062.0,2283.0,0.0,-2.3521,0.5228,9.5833
2026-04-18T09:58:35.347Z,66929.0,2062.0,2283.0,0.0,-2.3521,0.5228,9.5833
2026-04-18T09:58:35.347Z,66949.0,2062.0,2295.0,0.0,-2.3438,0.5109,9.588
2026-04-18T09:58:35.470Z,66969.0,2062.0,2295.0,0.0,-2.3438,0.5109,9.588
2026-04-18T09:58:35.470Z,66990.0,2062.0,2308.0,0.0,-2.3378,0.5216,9.5856
2026-04-18T09:58:35.471Z,67009.0,2062.0,2308.0,0.0,-2.3378,0.5216,9.5856
2026-04-18T09:58:35.471Z,67029.0,2062.0,2320.0,0.0,-2.3545,0.5264,9.588
2026-04-18T09:58:35.472Z,67049.0,2062.0,2320.0,0.0,-2.3521,0.5204,9.5845
2026-04-18T09:58:35.513Z,67069.0,2062.0,2324.0,0.0,-2.3521,0.5204,9.5845
2026-04-18T09:58:35.514Z,67089.0,2062.0,2324.0,0.0,-2.3426,0.5288,9.5833
2026-04-18T09:58:35.515Z,67109.0,2062.0,2312.0,0.0,-2.3426,0.5288,9.5833
2026-04-18T09:58:35.517Z,67129.0,2065.0,2312.0,0.0,-2.3366,0.5157,9.5892
2026-04-18T09:58:35.583Z,67149.0,2065.0,2320.0,0.0,-2.3498,0.5013,9.5904
2026-04-18T09:58:35.584Z,67169.0,2065.0,2320.0,0.0,-2.3498,0.5013,9.5904
2026-04-18T09:58:35.585Z,67189.0,2065.0,2354.0,0.0,-2.3521,0.5324,9.5856
2026-04-18T09:58:35.690Z,67209.0,2065.0,2354.0,0.0,-2.3521,0.5324,9.5856
2026-04-18T09:58:35.693Z,67229.0,2065.0,2378.0,0.0,-2.3426,0.5444,9.5821
2026-04-18T09:58:35.693Z,67250.0,2065.0,2378.0,0.0,-2.3426,0.5444,9.5821
2026-04-18T09:58:35.715Z,67269.0,2065.0,2369.0,0.0,-2.3378,0.5025,9.5821
2026-04-18T09:58:35.715Z,67289.0,2065.0,2369.0,0.0,-2.3378,0.5025,9.5821
2026-04-18T09:58:35.717Z,67309.0,2065.0,2351.0,0.0,-2.3378,0.5025,9.5821
2026-04-18T09:58:35.758Z,67329.0,2065.0,2351.0,0.0,-2.3378,0.5025,9.5821
2026-04-18T09:58:35.758Z,67349.0,2065.0,2342.0,0.0,-2.3378,0.5025,9.5821
2026-04-18T09:58:35.759Z,67369.0,2065.0,2342.0,0.0,-2.3378,0.5025,9.5821
2026-04-18T09:58:35.823Z,67389.0,2065.0,2350.0,0.0,-2.3378,0.5025,9.5821
2026-04-18T09:58:35.826Z,67409.0,2065.0,2350.0,0.0,-2.3378,0.5025,9.5821
2026-04-18T09:58:35.843Z,67429.0,2065.0,2369.0,0.0,-2.3378,0.5025,9.5821
2026-04-18T09:58:35.896Z,67449.0,2065.0,2369.0,0.0,-2.3378,0.5025,9.5821
2026-04-18T09:58:35.899Z,67469.0,2065.0,2380.0,0.0,-2.3378,0.5025,9.5821
2026-04-18T09:58:35.900Z,67489.0,2065.0,2380.0,0.0,-2.3378,0.5025,9.5821
2026-04-18T09:58:35.943Z,67509.0,2065.0,2373.0,0.0,-2.3378,0.5025,9.5821
2026-04-18T09:58:35.943Z,67529.0,2065.0,2373.0,0.0,-2.3462,0.5025,9.5868
2026-04-18T09:58:35.944Z,67549.0,2065.0,2348.0,0.0,-2.3462,0.5025,9.5868
2026-04-18T09:58:36.005Z,67569.0,2065.0,2348.0,0.0,-2.339,0.5145,9.5868
2026-04-18T09:58:36.005Z,67589.0,2065.0,2333.0,0.0,-2.3438,0.53,9.588
2026-04-18T09:58:36.007Z,67609.0,2065.0,2333.0,0.0,-2.3438,0.53,9.588
2026-04-18T09:58:36.070Z,67629.0,2065.0,2322.0,0.0,-2.3641,0.5192,9.5821
2026-04-18T09:58:36.070Z,67649.0,2065.0,2322.0,0.0,-2.3641,0.5192,9.5821
2026-04-18T09:58:36.070Z,67669.0,2065.0,2306.0,0.0,-2.3342,0.5013,9.5988
2026-04-18T09:58:36.175Z,67689.0,2065.0,2306.0,0.0,-2.3163,0.5192,9.5892
2026-04-18T09:58:36.175Z,67709.0,2065.0,2255.0,0.0,-2.3163,0.5192,9.5892
2026-04-18T09:58:36.176Z,67729.0,2065.0,2255.0,0.0,-2.3629,0.5276,9.5833
2026-04-18T09:58:36.176Z,67749.0,2065.0,2175.0,0.0,-2.3629,0.5276,9.5833
2026-04-18T09:58:36.176Z,67769.0,2062.0,2175.0,0.0,-2.3689,0.5157,9.5856
2026-04-18T09:58:36.239Z,67789.0,2062.0,2131.0,0.0,-2.333,0.5204,9.5856
2026-04-18T09:58:36.240Z,67809.0,2062.0,2131.0,0.0,-2.333,0.5204,9.5856
2026-04-18T09:58:36.240Z,67829.0,2062.0,2104.0,0.0,-2.3354,0.5228,9.5868
2026-04-18T09:58:36.241Z,67849.0,2062.0,2104.0,0.0,-2.3354,0.5228,9.5868
2026-04-18T09:58:36.302Z,67869.0,2062.0,2063.0,0.0,-2.3354,0.5228,9.5868
2026-04-18T09:58:36.303Z,67889.0,2062.0,2063.0,0.0,-2.3653,0.5157,9.5797
2026-04-18T09:58:36.303Z,67910.0,2062.0,2041.0,0.0,-2.3689,0.5264,9.5845
2026-04-18T09:58:36.365Z,67930.0,2062.0,2041.0,0.0,-2.3689,0.5264,9.5845
2026-04-18T09:58:36.365Z,67949.0,2062.0,2055.0,0.0,-2.3246,0.518,9.5952
2026-04-18T09:58:36.366Z,67969.0,2062.0,2055.0,0.0,-2.3246,0.518,9.5952
2026-04-18T09:58:36.430Z,67989.0,2062.0,2066.0,0.0,-2.3258,0.5109,9.5904
2026-04-18T09:58:36.430Z,68010.0,2062.0,2066.0,0.0,-2.3258,0.5109,9.5904
2026-04-18T09:58:36.430Z,68029.0,2062.0,2031.0,0.0,-2.3629,0.5252,9.5809
2026-04-18T09:58:36.492Z,68049.0,2062.0,2031.0,0.0,-2.3653,0.5312,9.5821
2026-04-18T09:58:36.492Z,68069.0,2065.0,1972.0,0.0,-2.3653,0.5312,9.5821
2026-04-18T09:58:36.492Z,68090.0,2065.0,1972.0,0.0,-2.3509,0.53,9.5916
2026-04-18T09:58:36.534Z,68110.0,2065.0,1935.0,0.0,-2.3509,0.53,9.5916
2026-04-18T09:58:36.534Z,68130.0,2065.0,1935.0,0.0,-2.3569,0.5121,9.5809
2026-04-18T09:58:36.535Z,68150.0,2065.0,1962.0,0.0,-2.3521,0.5085,9.5821
2026-04-18T09:58:36.605Z,68171.0,2065.0,1962.0,0.0,-2.3521,0.5085,9.5821
2026-04-18T09:58:36.606Z,68191.0,2065.0,2032.0,0.0,-2.3462,0.5276,9.594
2026-04-18T09:58:36.606Z,68211.0,2065.0,2032.0,0.0,-2.3462,0.5276,9.594
2026-04-18T09:58:41.703Z,73269.0,2065.0,2281.0,0.0,-2.3486,0.5216,9.5833
2026-04-18T09:58:41.703Z,73289.0,2065.0,2281.0,0.0,-2.3486,0.5216,9.5833
2026-04-18T09:58:41.703Z,73309.0,2065.0,2272.0,0.0,-2.3486,0.5216,9.5833
2026-04-18T09:58:41.765Z,73329.0,2065.0,2272.0,0.0,-2.3486,0.5216,9.5833
2026-04-18T09:58:41.765Z,73349.0,2065.0,2254.0,0.0,-2.3486,0.5216,9.5833
2026-04-18T09:58:41.766Z,73369.0,2065.0,2254.0,0.0,-2.3486,0.5216,9.5833
2026-04-18T09:58:41.828Z,73389.0,2065.0,2264.0,0.0,-2.3486,0.5216,9.5833
2026-04-18T09:58:41.838Z,73409.0,2065.0,2264.0,0.0,-2.3486,0.5216,9.5833
2026-04-18T09:58:41.838Z,73429.0,2065.0,2275.0,0.0,-2.3486,0.5216,9.5833
2026-04-18T09:58:41.880Z,73449.0,2065.0,2275.0,0.0,-2.3486,0.5216,9.5833
2026-04-18T09:58:41.880Z,73469.0,2065.0,2275.0,0.0,-2.3486,0.5216,9.5833
2026-04-18T09:58:41.881Z,73489.0,2065.0,2275.0,0.0,-2.3486,0.5216,9.5833
2026-04-18T09:58:41.943Z,73509.0,2065.0,2284.0,0.0,-2.3486,0.5216,9.5833
2026-04-18T09:58:41.944Z,73529.0,2065.0,2284.0,0.0,-2.3557,0.5228,9.5833
2026-04-18T09:58:41.944Z,73549.0,2065.0,2304.0,0.0,-2.3557,0.5228,9.5833
2026-04-18T09:58:42.007Z,73569.0,2065.0,2304.0,0.0,-2.3557,0.5312,9.5856
2026-04-18T09:58:42.007Z,73589.0,2065.0,2342.0,0.0,-2.3426,0.5168,9.588
2026-04-18T09:58:42.007Z,73609.0,2065.0,2342.0,0.0,-2.3426,0.5168,9.588
2026-04-18T09:58:42.131Z,73629.0,2065.0,2376.0,0.0,-2.3426,0.5168,9.588
2026-04-18T09:58:42.131Z,73649.0,2065.0,2376.0,0.0,-2.339,0.5097,9.5892
2026-04-18T09:58:42.131Z,73669.0,2065.0,2393.0,0.0,-2.339,0.5097,9.5892
2026-04-18T09:58:42.131Z,73689.0,2065.0,2393.0,0.0,-2.3569,0.5204,9.5868
2026-04-18T09:58:42.131Z,73709.0,2065.0,2394.0,0.0,-2.3557,0.5264,9.5856
2026-04-18T09:58:42.174Z,73729.0,2065.0,2394.0,0.0,-2.3557,0.5264,9.5856
2026-04-18T09:58:42.175Z,73749.0,2065.0,2392.0,0.0,-2.3486,0.5145,9.5845
2026-04-18T09:58:42.197Z,73769.0,2065.0,2392.0,0.0,-2.3486,0.5145,9.5845
2026-04-18T09:58:42.197Z,73789.0,2065.0,2389.0,0.0,-2.3498,0.5168,9.5856
2026-04-18T09:58:42.264Z,73809.0,2065.0,2389.0,0.0,-2.3498,0.5168,9.5856
2026-04-18T09:58:42.264Z,73829.0,2065.0,2393.0,0.0,-2.3521,0.5192,9.5916
2026-04-18T09:58:42.265Z,73850.0,2065.0,2393.0,0.0,-2.3474,0.5133,9.5868
2026-04-18T09:58:42.326Z,73870.0,2065.0,2396.0,0.0,-2.3474,0.5133,9.5868
2026-04-18T09:58:42.349Z,73890.0,2065.0,2396.0,0.0,-2.3521,0.5204,9.5809
2026-04-18T09:58:42.352Z,73910.0,2065.0,2405.0,0.0,-2.3521,0.5204,9.5809
2026-04-18T09:58:42.373Z,73931.0,2065.0,2405.0,0.0,-2.3509,0.5252,9.5928
2026-04-18T09:58:42.373Z,73951.0,2065.0,2406.0,0.0,-2.3354,0.5145,9.5916
2026-04-18T09:58:42.373Z,73971.0,2065.0,2406.0,0.0,-2.3354,0.5145,9.5916
2026-04-18T09:58:42.414Z,73991.0,2065.0,2382.0,0.0,-2.345,0.5145,9.588
2026-04-18T09:58:42.415Z,74011.0,2065.0,2382.0,0.0,-2.345,0.5145,9.588
2026-04-18T09:58:42.415Z,74032.0,2065.0,2352.0,0.0,-2.3605,0.5252,9.5856
2026-04-18T09:58:42.477Z,74052.0,2065.0,2352.0,0.0,-2.3521,0.5264,9.5868
2026-04-18T09:58:42.477Z,74072.0,2065.0,2324.0,0.0,-2.3521,0.5264,9.5868
2026-04-18T09:58:42.478Z,74092.0,2065.0,2324.0,0.0,-2.3498,0.5252,9.5833
2026-04-18T09:58:42.540Z,74112.0,2065.0,2304.0,0.0,-2.3498,0.5252,9.5833
2026-04-18T09:58:42.540Z,74132.0,2065.0,2304.0,0.0,-2.3498,0.5145,9.5868
2026-04-18T09:58:42.540Z,74152.0,2065.0,2288.0,0.0,-2.3498,0.5145,9.5868
2026-04-18T09:58:42.602Z,74172.0,2065.0,2288.0,0.0,-2.3498,0.5157,9.5868
2026-04-18T09:58:42.603Z,74192.0,2065.0,2278.0,0.0,-2.3462,0.524,9.5892
2026-04-18T09:58:42.603Z,74212.0,2065.0,2278.0,0.0,-2.3462,0.524,9.5892
2026-04-18T09:58:42.670Z,74233.0,2065.0,2267.0,0.0,-2.3486,0.5228,9.5845
2026-04-18T09:58:42.671Z,74249.0,2065.0,2267.0,0.0,-2.3486,0.5228,9.5845
2026-04-18T09:58:42.671Z,74269.0,2065.0,2266.0,0.0,-2.3509,0.5252,9.5809
2026-04-18T09:58:42.715Z,74289.0,2065.0,2266.0,0.0,-2.3509,0.5252,9.5809
2026-04-18T09:58:42.716Z,74309.0,2065.0,2279.0,0.0,-2.3509,0.5252,9.5809
2026-04-18T09:58:42.716Z,74329.0,2065.0,2279.0,0.0,-2.3509,0.5252,9.5809
2026-04-18T09:58:42.848Z,74349.0,2065.0,2313.0,0.0,-2.3509,0.5252,9.5809
2026-04-18T09:58:42.848Z,74369.0,2065.0,2313.0,0.0,-2.3509,0.5252,9.5809
2026-04-18T09:58:42.848Z,74389.0,2065.0,2338.0,0.0,-2.3509,0.5252,9.5809
2026-04-18T09:58:42.848Z,74409.0,2065.0,2338.0,0.0,-2.3509,0.5252,9.5809
2026-04-18T09:58:42.849Z,74429.0,2065.0,2364.0,0.0,-2.3509,0.5252,9.5809
2026-04-18T09:58:42.911Z,74449.0,2065.0,2364.0,0.0,-2.3509,0.5252,9.5809
2026-04-18T09:58:42.973Z,74469.0,2065.0,2399.0,0.0,-2.3509,0.5252,9.5809
2026-04-18T09:58:42.974Z,74489.0,2065.0,2399.0,0.0,-2.3509,0.5252,9.5809
2026-04-18T09:58:42.976Z,74509.0,2065.0,2427.0,0.0,-2.3509,0.5252,9.5809
2026-04-18T09:58:42.977Z,74529.0,2065.0,2427.0,0.0,-2.3509,0.524,9.5845
2026-04-18T09:58:42.977Z,74549.0,2065.0,2440.0,0.0,-2.3509,0.524,9.5845
2026-04-18T09:58:43.018Z,74569.0,2065.0,2440.0,0.0,-2.3593,0.5312,9.5821
2026-04-18T09:58:43.020Z,74589.0,2065.0,2448.0,0.0,-2.339,0.5121,9.588
2026-04-18T09:58:43.024Z,74609.0,2065.0,2448.0,0.0,-2.339,0.5121,9.588
2026-04-18T09:58:43.025Z,74629.0,2065.0,2465.0,0.0,-2.3378,0.5073,9.5845
2026-04-18T09:58:43.162Z,74649.0,2065.0,2465.0,0.0,-2.3378,0.5073,9.5845
2026-04-18T09:58:43.172Z,74669.0,2065.0,2473.0,0.0,-2.3545,0.5264,9.5856
2026-04-18T09:58:43.172Z,74690.0,2065.0,2473.0,0.0,-2.3545,0.5264,9.5856
2026-04-18T09:58:43.174Z,74709.0,2065.0,2469.0,0.0,-2.3474,0.5216,9.5856
2026-04-18T09:58:43.177Z,74729.0,2065.0,2469.0,0.0,-2.3474,0.5216,9.5856
2026-04-18T09:58:43.218Z,74749.0,2065.0,2452.0,0.0,-2.3438,0.5145,9.5845
2026-04-18T09:58:43.222Z,74769.0,2065.0,2452.0,0.0,-2.3438,0.5145,9.5845
2026-04-18T09:58:43.224Z,74789.0,2065.0,2418.0,0.0,-2.3498,0.5168,9.5904
2026-04-18T09:58:43.224Z,74809.0,2065.0,2418.0,0.0,-2.3498,0.5168,9.5904
2026-04-18T09:58:43.274Z,74829.0,2065.0,2395.0,0.0,-2.3605,0.5252,9.5892
2026-04-18T09:58:43.276Z,74849.0,2065.0,2395.0,0.0,-2.3486,0.5216,9.5868
2026-04-18T09:58:43.277Z,74870.0,2065.0,2375.0,0.0,-2.3486,0.5216,9.5868
2026-04-18T09:58:43.319Z,74890.0,2065.0,2375.0,0.0,-2.3486,0.5145,9.5892
2026-04-18T09:58:43.319Z,74910.0,2065.0,2359.0,0.0,-2.3486,0.5145,9.5892
2026-04-18T09:58:43.319Z,74930.0,2065.0,2359.0,0.0,-2.3545,0.5145,9.5845
2026-04-18T09:58:43.381Z,74951.0,2065.0,2354.0,0.0,-2.3486,0.5157,9.5868
2026-04-18T09:58:43.382Z,74971.0,2065.0,2354.0,0.0,-2.3486,0.5157,9.5868
2026-04-18T09:58:43.382Z,74991.0,2065.0,2354.0,0.0,-2.3474,0.518,9.5845
2026-04-18T09:58:43.447Z,75011.0,2065.0,2354.0,0.0,-2.3474,0.518,9.5845
2026-04-18T09:58:43.447Z,75031.0,2065.0,2355.0,0.0,-2.3498,0.5157,9.588
2026-04-18T09:58:43.451Z,75052.0,2065.0,2355.0,0.0,-2.3498,0.5157,9.588
2026-04-18T09:58:43.515Z,75072.0,2065.0,2356.0,0.0,-2.3521,0.5145,9.5833
2026-04-18T09:58:43.516Z,75092.0,2065.0,2356.0,0.0,-2.3462,0.5216,9.5856
2026-04-18T09:58:43.517Z,75112.0,2065.0,2367.0,0.0,-2.3462,0.5216,9.5856
2026-04-18T09:58:43.560Z,75132.0,2065.0,2367.0,0.0,-2.3498,0.518,9.5821
2026-04-18T09:58:43.561Z,75153.0,2065.0,2391.0,0.0,-2.3498,0.518,9.5821
2026-04-18T09:58:43.561Z,75169.0,2065.0,2391.0,0.0,-2.3498,0.518,9.5868
2026-04-18T09:58:43.614Z,75189.0,2065.0,2411.0,0.0,-2.3426,0.524,9.5928
2026-04-18T09:58:43.614Z,75209.0,2065.0,2411.0,0.0,-2.3426,0.524,9.5928
2026-04-18T09:58:43.614Z,75229.0,2065.0,2422.0,0.0,-2.3378,0.5145,9.5904
2026-04-18T09:58:43.676Z,75249.0,2065.0,2422.0,0.0,-2.3378,0.5145,9.5904
2026-04-18T09:58:43.676Z,75269.0,2065.0,2425.0,0.0,-2.345,0.5133,9.5856
2026-04-18T09:58:43.676Z,75289.0,2065.0,2425.0,0.0,-2.345,0.5133,9.5856
2026-04-18T09:58:43.739Z,75309.0,2065.0,2422.0,0.0,-2.345,0.5133,9.5856
2026-04-18T09:58:43.739Z,75329.0,2065.0,2422.0,0.0,-2.345,0.5133,9.5856
2026-04-18T09:58:43.866Z,75349.0,2065.0,2424.0,0.0,-2.345,0.5133,9.5856
2026-04-18T09:58:43.869Z,75369.0,2065.0,2424.0,0.0,-2.345,0.5133,9.5856
2026-04-18T09:58:43.870Z,75389.0,2065.0,2417.0,0.0,-2.345,0.5133,9.5856
2026-04-18T09:58:43.875Z,75409.0,2065.0,2417.0,0.0,-2.345,0.5133,9.5856
2026-04-18T09:58:43.876Z,75429.0,2065.0,2414.0,0.0,-2.345,0.5133,9.5856
2026-04-18T09:58:43.923Z,75449.0,2065.0,2414.0,0.0,-2.345,0.5133,9.5856
2026-04-18T09:58:43.923Z,75469.0,2065.0,2410.0,0.0,-2.345,0.5133,9.5856
2026-04-18T09:58:43.923Z,75489.0,2065.0,2410.0,0.0,-2.345,0.5133,9.5856
2026-04-18T09:58:43.923Z,75509.0,2065.0,2395.0,0.0,-2.345,0.5133,9.5856
2026-04-18T09:58:43.924Z,75529.0,2065.0,2395.0,0.0,-2.3545,0.524,9.5845
2026-04-18T09:58:43.986Z,75549.0,2065.0,2374.0,0.0,-2.3545,0.524,9.5845
2026-04-18T09:58:43.986Z,75569.0,2065.0,2374.0,0.0,-2.3474,0.5192,9.5845
2026-04-18T09:58:43.986Z,75589.0,2065.0,2348.0,0.0,-2.3521,0.518,9.5868
2026-04-18T09:58:44.049Z,75609.0,2065.0,2348.0,0.0,-2.3521,0.518,9.5868
2026-04-18T09:58:44.111Z,75629.0,2065.0,2322.0,0.0,-2.3545,0.5252,9.5856
2026-04-18T09:58:44.112Z,75649.0,2065.0,2322.0,0.0,-2.3545,0.5252,9.5856
2026-04-18T09:58:44.113Z,75669.0,2065.0,2303.0,0.0,-2.3545,0.5252,9.5856
2026-04-18T09:58:44.114Z,75689.0,2065.0,2303.0,0.0,-2.3533,0.5252,9.5809
2026-04-18T09:58:44.114Z,75709.0,2065.0,2286.0,0.0,-2.3533,0.5252,9.5809
2026-04-18T09:58:44.155Z,75729.0,2065.0,2286.0,0.0,-2.3498,0.5145,9.5856
2026-04-18T09:58:44.218Z,75749.0,2065.0,2282.0,0.0,-2.3498,0.5145,9.5856
2026-04-18T09:58:44.218Z,75770.0,2065.0,2282.0,0.0,-2.3498,0.5145,9.5856
2026-04-18T09:58:44.218Z,75790.0,2065.0,2278.0,0.0,-2.3426,0.5204,9.5845
2026-04-18T09:58:44.218Z,75810.0,2065.0,2278.0,0.0,-2.3426,0.5204,9.5845
2026-04-18T09:58:44.218Z,75830.0,2065.0,2276.0,0.0,-2.3521,0.5192,9.5833
2026-04-18T09:58:44.281Z,75850.0,2065.0,2276.0,0.0,-2.3569,0.518,9.5856
2026-04-18T09:58:44.282Z,75871.0,2065.0,2278.0,0.0,-2.3569,0.518,9.5856
2026-04-18T09:58:44.282Z,75891.0,2065.0,2278.0,0.0,-2.3533,0.524,9.5845
2026-04-18T09:58:44.344Z,75911.0,2065.0,2289.0,0.0,-2.3533,0.524,9.5845
2026-04-18T09:58:44.344Z,75931.0,2065.0,2289.0,0.0,-2.345,0.5264,9.5845
2026-04-18T09:58:44.345Z,75951.0,2065.0,2323.0,0.0,-2.345,0.5097,9.5892
2026-04-18T09:58:44.409Z,75972.0,2061.0,2323.0,0.0,-2.345,0.5097,9.5892
2026-04-18T09:58:44.409Z,75992.0,2061.0,2351.0,0.0,-2.339,0.5097,9.5856
2026-04-18T09:58:44.410Z,76012.0,2061.0,2351.0,0.0,-2.339,0.5097,9.5856
2026-04-18T09:58:44.452Z,76032.0,2061.0,2365.0,0.0,-2.3462,0.5276,9.5833
2026-04-18T09:58:44.452Z,76052.0,2061.0,2365.0,0.0,-2.3462,0.5276,9.5833
2026-04-18T09:58:44.452Z,76073.0,2061.0,2361.0,0.0,-2.3581,0.5228,9.5868
2026-04-18T09:58:44.577Z,76093.0,2061.0,2361.0,0.0,-2.3533,0.518,9.5892
2026-04-18T09:58:44.578Z,76112.0,2061.0,2362.0,0.0,-2.3533,0.518,9.5892
2026-04-18T09:58:44.578Z,76133.0,2061.0,2362.0,0.0,-2.3354,0.5109,9.5892
2026-04-18T09:58:44.579Z,76152.0,2061.0,2373.0,0.0,-2.3354,0.5109,9.5892
2026-04-18T09:58:44.580Z,76172.0,2061.0,2373.0,0.0,-2.339,0.5157,9.5845
2026-04-18T09:58:44.642Z,76192.0,2061.0,2379.0,0.0,-2.3569,0.5312,9.5845
2026-04-18T09:58:44.643Z,76212.0,2061.0,2379.0,0.0,-2.3569,0.5312,9.5845
2026-04-18T09:58:44.644Z,76234.0,2061.0,2372.0,0.0,-2.3557,0.5228,9.5856
2026-04-18T09:58:44.644Z,76252.0,2061.0,2372.0,0.0,-2.3557,0.5228,9.5856
2026-04-18T09:58:44.706Z,76272.0,2064.0,2357.0,0.0,-2.3366,0.5073,9.5904
2026-04-18T09:58:44.706Z,76289.0,2064.0,2357.0,0.0,-2.3366,0.5073,9.5904
